Time,Counter,ax,ay,az,gx,gy,gz,mx,my,mz,roll,yaw,pitch,q0,q1,q2,q3,Rest,Mag Disturbance,
06.23 16:36:05:084,24727,-0.00767,-0.04188,9.80928,0.00000,0.00000,9015246949711872.00000,0.20351,0.18365,-0.61384,-0.40028,54.50489,0.00637,-0.88899,0.00313,0.00155,-0.45791,0,1,
06.23 16:36:05:085,24728,-0.01792,-0.07712,9.77707,0.00000,0.00000,9015246949711872.00000,0.20202,0.17964,-0.61337,-0.40155,54.50468,0.00657,-0.88899,0.00314,0.00155,-0.45791,0,1,
06.23 16:36:05:085,24729,-0.03781,-0.04504,9.81421,0.00000,0.00000,9015246949711872.00000,0.20203,0.18017,-0.61486,-0.40061,54.50379,0.00608,-0.88900,0.00313,0.00155,-0.45790,0,1,
06.23 16:36:05:091,24730,0.00912,-0.05969,9.79026,0.00000,0.00000,0.00161,0.20203,0.18166,-0.61435,-0.39945,54.50389,0.00529,-0.88900,0.00312,0.00156,-0.45790,1,0,
06.23 16:36:05:101,24731,0.00701,-0.05322,9.79102,0.00000,0.00000,0.00161,0.20252,0.18215,-0.61385,-0.39994,54.50315,0.00577,-0.88900,0.00313,0.00155,-0.45790,1,0,
06.23 16:36:05:112,24732,0.04673,-0.03473,9.74205,0.00000,0.00000,0.00161,0.19954,0.18512,-0.61287,-0.39829,54.50157,0.00524,-0.88901,0.00311,0.00155,-0.45788,1,0,
06.23 16:36:05:122,24733,-0.00133,-0.07013,9.90806,0.00000,0.00000,0.00161,0.20053,0.18214,-0.61337,-0.39808,54.50185,0.00504,-0.88900,0.00311,0.00155,-0.45789,1,0,
06.23 16:36:05:131,24734,-0.09014,-0.04774,9.79061,0.00000,0.00000,0.00161,0.20302,0.18316,-0.61434,-0.39853,54.50301,0.00701,-0.88900,0.00312,0.00154,-0.45789,1,0,
06.23 16:36:05:142,24735,-0.05813,-0.06076,9.85708,0.00000,0.00000,0.00161,0.20203,0.17966,-0.61436,-0.39816,54.50231,0.00572,-0.88900,0.00311,0.00155,-0.45789,1,0,
06.23 16:36:05:150,24736,0.05053,-0.06138,9.71990,0.00000,0.00000,0.00161,0.20055,0.18169,-0.61586,-0.39665,54.50156,0.00168,-0.88901,0.00308,0.00157,-0.45788,1,0,
06.23 16:36:05:161,24737,-0.01849,-0.07949,9.86090,0.00000,0.00000,0.00161,0.20152,0.18111,-0.61187,-0.39683,54.50229,0.00222,-0.88900,0.00309,0.00157,-0.45789,1,0,
06.23 16:36:05:171,24738,-0.01381,-0.05039,9.75204,0.00000,0.00000,0.00161,0.20104,0.18268,-0.61535,-0.39717,54.50214,0.00191,-0.88900,0.00309,0.00157,-0.45789,1,0,
06.23 16:36:05:182,24739,0.06381,-0.01459,9.90624,0.00000,0.00000,0.00161,0.20203,0.18116,-0.61436,-0.39731,54.50163,-0.00011,-0.88901,0.00308,0.00159,-0.45788,1,0,
06.23 16:36:05:192,24740,0.03431,-0.02395,9.68185,0.00000,0.00000,0.00161,0.20102,0.18211,-0.61187,-0.39588,54.50201,0.00114,-0.88900,0.00308,0.00157,-0.45789,1,0,
06.23 16:36:05:202,24741,-0.05303,-0.06274,9.77450,0.00000,0.00000,0.00161,0.20352,0.18317,-0.61483,-0.39581,54.50348,0.00239,-0.88900,0.00308,0.00156,-0.45790,1,0,
06.23 16:36:05:212,24742,-0.05136,-0.06960,9.91883,0.00000,0.00000,0.00161,0.20203,0.18218,-0.61535,-0.39633,54.50338,0.00207,-0.88900,0.00308,0.00157,-0.45790,1,0,
06.23 16:36:05:220,24743,-0.02626,-0.06895,9.80539,0.00000,0.00000,0.00161,0.20499,0.18061,-0.61135,-0.39734,54.50328,0.00158,-0.88900,0.00309,0.00158,-0.45790,1,0,
06.23 16:36:05:230,24744,-0.00926,-0.05518,9.73420,0.00000,0.00000,0.00161,0.20351,0.18365,-0.61384,-0.39763,54.50390,0.00155,-0.88900,0.00309,0.00158,-0.45790,1,0,
06.23 16:36:05:240,24745,0.00009,-0.03411,9.92773,0.00000,0.00000,0.00161,0.20400,0.18011,-0.61136,-0.39781,54.50253,0.00090,-0.88900,0.00309,0.00158,-0.45789,1,0,
06.23 16:36:05:251,24746,0.04380,0.00190,9.80773,0.00000,0.00000,0.00161,0.20152,0.18164,-0.61336,-0.39627,54.50320,-0.00004,-0.88900,0.00307,0.00158,-0.45790,1,0,
06.23 16:36:05:262,24747,-0.04075,-0.04981,9.77335,0.00000,0.00000,0.00161,0.20153,0.18014,-0.61337,-0.39539,54.50351,0.00174,-0.88900,0.00307,0.00157,-0.45790,1,0,
06.23 16:36:05:272,24748,-0.03569,-0.06118,9.82647,0.00000,0.00000,0.00161,0.20202,0.18215,-0.61386,-0.39401,54.50329,0.00197,-0.88900,0.00306,0.00156,-0.45790,1,0,
06.23 16:36:05:282,24749,0.00155,-0.09983,9.88977,0.00000,0.00000,0.00161,0.20153,0.18265,-0.61386,-0.39348,54.50171,0.00027,-0.88901,0.00305,0.00157,-0.45788,1,0,
06.23 16:36:05:291,24750,-0.02163,-0.06674,9.68375,0.00000,0.00000,0.00161,0.20351,0.18064,-0.61285,-0.39643,54.50349,0.00192,-0.88900,0.00308,0.00157,-0.45790,1,0,
06.23 16:36:05:300,24751,-0.05458,-0.06910,9.87377,0.00000,0.00000,0.00161,0.20253,0.18219,-0.61584,-0.39621,54.50456,0.00238,-0.88899,0.00308,0.00156,-0.45791,1,0,
06.23 16:36:05:311,24752,0.01639,-0.06703,9.82723,0.00000,0.00000,0.00161,0.20251,0.18212,-0.61236,-0.39530,54.50452,-0.00057,-0.88899,0.00306,0.00158,-0.45791,1,0,
06.23 16:36:05:321,24753,0.00808,-0.04720,9.80310,0.00000,0.00000,0.00161,0.20252,0.18015,-0.61386,-0.39529,54.50491,-0.00148,-0.88899,0.00306,0.00159,-0.45791,1,0,
06.23 16:36:05:331,24754,0.02144,-0.04199,9.65965,0.00000,0.00000,0.00161,0.20253,0.18118,-0.61535,-0.39364,54.50438,-0.00108,-0.88899,0.00305,0.00158,-0.45791,1,0,
06.23 16:36:05:341,24755,0.00290,-0.01795,9.91061,0.00000,0.00000,0.00161,0.20053,0.18313,-0.61337,-0.39411,54.50370,-0.00192,-0.88900,0.00305,0.00159,-0.45790,1,0,
06.23 16:36:05:351,24756,-0.00186,-0.05117,9.74572,0.00000,0.00000,0.00161,0.19955,0.18115,-0.61438,-0.39553,54.50393,-0.00108,-0.88900,0.00306,0.00159,-0.45790,1,0,
06.23 16:36:05:361,24757,-0.01438,-0.02816,9.78038,0.00000,0.00000,0.00161,0.20054,0.18316,-0.61436,-0.39485,54.50325,-0.00020,-0.88900,0.00306,0.00158,-0.45790,1,0,
06.23 16:36:05:371,24758,0.00206,-0.05112,9.77309,0.00000,0.00000,0.00161,0.20450,0.18063,-0.61235,-0.39379,54.50308,0.00007,-0.88900,0.00306,0.00157,-0.45790,1,0,
06.23 16:36:05:380,24759,-0.04282,-0.04755,9.96962,0.00000,0.00000,0.00161,0.20253,0.18067,-0.61485,-0.39290,54.50294,0.00184,-0.88900,0.00306,0.00156,-0.45789,1,0,
06.23 16:36:05:390,24760,0.02942,-0.02104,9.59914,0.00000,0.00000,0.00161,0.20153,0.18065,-0.61386,-0.39286,54.50302,0.00042,-0.88900,0.00305,0.00157,-0.45789,1,0,
06.23 16:36:05:401,24761,-0.02873,-0.01456,9.89654,0.00000,0.00000,0.00161,0.20104,0.18219,-0.61585,-0.39328,54.50242,0.00226,-0.88900,0.00306,0.00155,-0.45789,1,0,
06.23 16:36:05:412,24762,-0.02254,-0.13721,9.76622,0.00000,0.00000,0.00161,0.20302,0.17967,-0.61435,-0.39337,54.50206,0.00104,-0.88900,0.00306,0.00156,-0.45789,1,0,
06.23 16:36:05:422,24763,-0.03831,-0.05381,9.82900,0.00000,0.00000,0.00161,0.20401,0.18215,-0.61334,-0.39334,54.50229,0.00081,-0.88900,0.00305,0.00157,-0.45789,1,0,
06.23 16:36:05:431,24764,-0.00191,-0.05794,9.75158,0.00000,0.00000,0.00161,0.20449,0.18311,-0.61134,-0.39439,54.50274,-0.00076,-0.88900,0.00306,0.00158,-0.45789,1,0,
06.23 16:36:05:441,24765,-0.01825,-0.03593,9.84123,0.00000,0.00000,0.00161,0.20302,0.18166,-0.61435,-0.39240,54.50182,-0.00086,-0.88900,0.00304,0.00157,-0.45789,1,0,
06.23 16:36:05:450,24766,-0.01981,-0.06295,9.76829,0.00000,0.00000,0.00161,0.20053,0.18165,-0.61387,-0.39341,54.50279,-0.00109,-0.88900,0.00305,0.00158,-0.45789,1,0,
06.23 16:36:05:460,24767,-0.02567,-0.04538,9.85696,0.00000,0.00000,0.00161,0.19953,0.18161,-0.61238,-0.39297,54.50272,-0.00158,-0.88900,0.00304,0.00158,-0.45789,1,0,
06.23 16:36:05:471,24768,0.01010,-0.04247,9.77898,0.00000,0.00000,0.00161,0.20252,0.18216,-0.61435,-0.39136,54.50234,-0.00263,-0.88900,0.00303,0.00158,-0.45789,1,0,
06.23 16:36:05:481,24769,-0.01658,-0.06139,9.80928,0.00000,0.00000,0.00161,0.20054,0.18268,-0.61536,-0.39138,54.50280,-0.00179,-0.88900,0.00303,0.00158,-0.45789,1,0,
06.23 16:36:05:492,24770,0.03736,-0.03218,9.75926,0.00000,0.00000,0.00161,0.20053,0.18114,-0.61337,-0.39076,54.50209,-0.00324,-0.88900,0.00302,0.00159,-0.45789,1,0,
06.23 16:36:05:502,24771,0.03087,-0.07835,9.74371,0.00000,0.00000,0.00161,0.20401,0.18017,-0.61434,-0.39238,54.50296,-0.00359,-0.88900,0.00303,0.00160,-0.45789,1,0,
06.23 16:36:05:512,24772,-0.02654,-0.09899,9.94172,0.00000,0.00000,0.00161,0.20152,0.18113,-0.61287,-0.39492,54.50415,-0.00274,-0.88900,0.00305,0.00160,-0.45790,1,0,
06.23 16:36:05:520,24773,-0.00517,0.00356,9.69546,0.00000,0.00000,0.00161,0.20005,0.18317,-0.61536,-0.39439,54.50343,-0.00248,-0.88900,0.00305,0.00160,-0.45790,1,0,
06.23 16:36:05:531,24774,0.02081,-0.03375,9.77983,0.00000,0.00000,0.00161,0.20253,0.18170,-0.61634,-0.39437,54.50306,-0.00362,-0.88900,0.00305,0.00160,-0.45789,1,0,
06.23 16:36:05:541,24775,0.02384,-0.04136,9.78258,0.00000,0.00000,0.00161,0.20302,0.18117,-0.61485,-0.39343,54.50304,-0.00351,-0.88900,0.00304,0.00160,-0.45789,1,0,
06.23 16:36:05:550,24776,-0.01506,-0.07913,9.78878,0.00000,0.00000,0.00161,0.20054,0.18217,-0.61486,-0.39230,54.50314,-0.00298,-0.88900,0.00303,0.00159,-0.45790,1,0,
06.23 16:36:05:561,24777,-0.03539,-0.07314,9.79414,0.00000,0.00000,0.00161,0.20203,0.18167,-0.61485,-0.39441,54.50309,-0.00288,-0.88900,0.00305,0.00160,-0.45790,1,0,
06.23 16:36:05:572,24778,0.00433,-0.05264,9.83245,0.00000,0.00000,0.00161,0.20350,0.18112,-0.61186,-0.39482,54.50251,-0.00319,-0.88900,0.00305,0.00160,-0.45789,1,0,
06.23 16:36:05:582,24779,-0.00644,-0.06178,9.76415,0.00000,0.00000,0.00161,0.19954,0.18114,-0.61388,-0.39432,54.50185,-0.00252,-0.88900,0.00305,0.00160,-0.45789,1,0,
06.23 16:36:05:591,24780,-0.00133,-0.01785,9.80904,0.00000,0.00000,0.00161,0.20054,0.18065,-0.61387,-0.39429,54.50128,-0.00226,-0.88901,0.00305,0.00159,-0.45788,1,0,
06.23 16:36:05:601,24781,0.00469,-0.07935,9.77490,0.00000,0.00000,0.00161,0.20152,0.18111,-0.61187,-0.39442,54.50106,-0.00241,-0.88901,0.00305,0.00159,-0.45788,1,0,
06.23 16:36:05:611,24782,-0.01438,-0.08759,9.84480,0.00000,0.00000,0.00161,0.20152,0.18314,-0.61336,-0.39560,54.50176,-0.00078,-0.88900,0.00307,0.00159,-0.45788,1,0,
06.23 16:36:05:621,24783,-0.02054,-0.08793,9.80027,0.00000,0.00000,0.00161,0.20153,0.18216,-0.61436,-0.39598,54.50237,0.00019,-0.88900,0.00307,0.00158,-0.45789,1,0,
06.23 16:36:05:631,24784,-0.00879,-0.05378,9.78325,0.00000,0.00000,0.00161,0.20350,0.18062,-0.61186,-0.39348,54.50206,0.00023,-0.88900,0.00305,0.00157,-0.45789,1,0,
06.23 16:36:05:641,24785,-0.01689,-0.10522,9.83787,0.00000,0.00000,0.00161,0.20152,0.18163,-0.61287,-0.39370,54.50170,0.00051,-0.88901,0.00306,0.00157,-0.45788,1,0,
06.23 16:36:05:652,24786,-0.01018,-0.07235,9.76219,0.00000,0.00000,0.00161,0.20005,0.18517,-0.61535,-0.39190,54.50043,-0.00025,-0.88901,0.00304,0.00157,-0.45787,1,0,
06.23 16:36:05:661,24787,-0.00498,-0.08120,9.84700,0.00000,0.00000,0.00161,0.20003,0.18210,-0.61188,-0.39035,54.49804,-0.00148,-0.88902,0.00302,0.00157,-0.45786,1,0,
06.23 16:36:05:671,24788,0.03026,-0.04994,9.76403,0.00000,0.00000,0.00161,0.19954,0.18362,-0.61287,-0.39129,54.49904,-0.00302,-0.88902,0.00302,0.00159,-0.45786,1,0,
06.23 16:36:05:680,24789,0.01889,-0.05577,9.78575,0.00000,0.00000,0.00161,0.20303,0.18169,-0.61584,-0.39202,54.49878,-0.00301,-0.88902,0.00303,0.00159,-0.45786,1,0,
06.23 16:36:05:691,24790,0.01923,-0.05396,9.78520,0.00000,0.00000,0.00161,0.20402,0.18119,-0.61534,-0.39174,54.49933,-0.00294,-0.88901,0.00303,0.00159,-0.45787,1,0,
06.23 16:36:05:701,24791,-0.00255,-0.03587,9.82904,0.00000,0.00000,0.00161,0.20153,0.18266,-0.61436,-0.39354,54.49930,-0.00311,-0.88901,0.00304,0.00160,-0.45787,1,0,
06.23 16:36:05:711,24792,0.00231,-0.07180,9.80675,0.00000,0.00000,0.00161,0.20301,0.18112,-0.61236,-0.39383,54.49954,-0.00275,-0.88901,0.00304,0.00159,-0.45787,1,0,
06.23 16:36:05:721,24793,-0.01754,-0.05692,9.82502,0.00000,0.00000,0.00161,0.20302,0.18017,-0.61435,-0.39486,54.49855,-0.00285,-0.88902,0.00305,0.00160,-0.45786,1,0,
06.23 16:36:05:732,24794,-0.03627,-0.06641,9.81717,0.00000,0.00000,0.00161,0.20103,0.18064,-0.61337,-0.39513,54.49874,-0.00249,-0.88902,0.00306,0.00160,-0.45786,1,0,
06.23 16:36:05:741,24795,-0.00256,-0.04855,9.72846,0.00000,0.00000,0.00161,0.20252,0.18214,-0.61335,-0.39230,54.49806,-0.00329,-0.88902,0.00303,0.00159,-0.45786,1,0,
06.23 16:36:05:751,24796,-0.00138,-0.10294,9.81298,0.00000,0.00000,0.00161,0.20302,0.18367,-0.61484,-0.39114,54.49799,-0.00331,-0.88902,0.00302,0.00159,-0.45786,1,0,
06.23 16:36:05:761,24797,0.02867,-0.05583,9.74205,0.00000,0.00000,0.00161,0.20151,0.18210,-0.61137,-0.39042,54.49794,-0.00437,-0.88902,0.00301,0.00159,-0.45786,1,0,
06.23 16:36:05:771,24798,-0.00334,-0.03697,9.84576,0.00000,0.00000,0.00161,0.19954,0.18314,-0.61387,-0.39078,54.49821,-0.00342,-0.88902,0.00302,0.00159,-0.45786,1,0,
06.23 16:36:05:782,24799,0.02337,-0.04634,9.77039,0.00000,0.00000,0.00161,0.20054,0.18316,-0.61436,-0.39202,54.49787,-0.00446,-0.88902,0.00302,0.00160,-0.45785,1,0,
06.23 16:36:05:791,24800,-0.03326,-0.05398,9.84564,0.00000,0.00000,0.00161,0.20054,0.18269,-0.61586,-0.39089,54.49748,-0.00274,-0.88902,0.00302,0.00158,-0.45785,1,0,
06.23 16:36:05:801,24801,-0.01197,-0.04412,9.76331,0.00000,0.00000,0.00161,0.20202,0.18362,-0.61236,-0.39210,54.49673,-0.00126,-0.88902,0.00304,0.00158,-0.45785,1,0,
06.23 16:36:05:812,24802,-0.00899,-0.05624,9.86443,0.00000,0.00000,0.00161,0.20152,0.18162,-0.61237,-0.39158,54.49643,-0.00075,-0.88903,0.00303,0.00157,-0.45784,1,0,
06.23 16:36:05:826,24803,-0.03131,-0.03990,9.78849,0.00000,0.00000,0.00161,0.20104,0.18418,-0.61535,-0.38934,54.49592,-0.00087,-0.88903,0.00302,0.00156,-0.45784,1,0,
06.23 16:36:05:832,24804,0.01148,-0.05920,9.78568,0.00000,0.00000,0.00161,0.20251,0.18361,-0.61186,-0.38838,54.49681,-0.00126,-0.88902,0.00301,0.00156,-0.45785,1,0,
06.23 16:36:05:843,24805,-0.00978,-0.06313,9.79757,0.00000,0.00000,0.00161,0.20351,0.18064,-0.61285,-0.38758,54.49754,-0.00257,-0.88902,0.00300,0.00157,-0.45785,1,0,
06.23 16:36:05:852,24806,-0.00245,-0.06048,9.81197,0.00000,0.00000,0.00161,0.20450,0.18216,-0.61384,-0.38700,54.49790,-0.00261,-0.88902,0.00299,0.00157,-0.45786,1,0,
06.23 16:36:05:863,24807,-0.03387,-0.05125,9.81970,0.00000,0.00000,0.00161,0.20202,0.18065,-0.61386,-0.38792,54.49805,-0.00174,-0.88902,0.00300,0.00156,-0.45786,1,0,
06.23 16:36:05:874,24808,-0.05143,-0.07425,9.80651,0.00000,0.00000,0.00161,0.20203,0.18168,-0.61535,-0.38927,54.49919,-0.00164,-0.88902,0.00301,0.00157,-0.45786,1,0,
06.23 16:36:05:887,24809,0.00076,-0.05915,9.78315,0.00000,0.00000,0.00161,0.20104,0.18268,-0.61535,-0.38734,54.49891,-0.00328,-0.88902,0.00299,0.00157,-0.45786,1,0,
06.23 16:36:05:895,24810,0.00690,-0.07213,9.80005,0.00000,0.00000,0.00161,0.20252,0.17965,-0.61386,-0.38601,54.49847,-0.00406,-0.88902,0.00298,0.00157,-0.45786,1,0,
06.23 16:36:05:903,24811,0.00464,-0.03702,9.79240,0.00000,0.00000,0.00161,0.20302,0.18168,-0.61534,-0.38509,54.49850,-0.00439,-0.88902,0.00297,0.00157,-0.45786,1,0,
06.23 16:36:05:913,24812,0.00845,-0.02703,9.79431,0.00000,0.00000,0.00161,0.20201,0.17960,-0.61138,-0.38557,54.49801,-0.00583,-0.88902,0.00297,0.00159,-0.45786,1,0,
06.23 16:36:05:924,24813,0.02390,-0.03469,9.77223,0.00000,0.00000,0.00161,0.20449,0.18162,-0.61185,-0.38618,54.49841,-0.00499,-0.88902,0.00298,0.00158,-0.45786,1,0,
06.23 16:36:05:936,24814,-0.02944,-0.04500,9.79269,0.00000,0.00000,0.00161,0.20301,0.18011,-0.61186,-0.38617,54.49947,-0.00509,-0.88901,0.00298,0.00158,-0.45787,1,0,
06.23 16:36:05:944,24815,-0.02522,-0.07365,9.79812,0.00000,0.00000,0.00161,0.20302,0.18216,-0.61434,-0.38561,54.49987,-0.00459,-0.88901,0.00297,0.00158,-0.45787,1,0,
06.23 16:36:05:952,24816,-0.01046,-0.07236,9.81681,0.00000,0.00000,0.00161,0.20052,0.18011,-0.61188,-0.38507,54.50013,-0.00333,-0.88901,0.00297,0.00156,-0.45787,1,0,
06.23 16:36:05:963,24817,-0.04578,-0.05427,9.79617,0.00000,0.00000,0.00161,0.20451,0.18019,-0.61534,-0.38467,54.50001,-0.00289,-0.88901,0.00297,0.00156,-0.45787,1,0,
06.23 16:36:05:975,24818,-0.01472,-0.06239,9.81257,0.00000,0.00000,0.00161,0.20054,0.18268,-0.61536,-0.38588,54.50089,-0.00264,-0.88901,0.00298,0.00156,-0.45788,1,0,
06.23 16:36:05:981,24819,0.01532,-0.06140,9.80957,0.00000,0.00000,0.00161,0.20252,0.18314,-0.61335,-0.38558,54.50124,-0.00240,-0.88901,0.00298,0.00156,-0.45788,1,0,
06.23 16:36:05:995,24820,-0.01036,-0.05160,9.77283,0.00000,0.00000,0.00161,0.20401,0.18315,-0.61384,-0.38498,54.50116,-0.00242,-0.88901,0.00298,0.00156,-0.45788,1,0,
06.23 16:36:06:002,24821,-0.02699,-0.06732,9.80797,0.00000,0.00000,0.00161,0.20153,0.18166,-0.61436,-0.38522,54.50140,-0.00220,-0.88901,0.00298,0.00156,-0.45788,1,0,
06.23 16:36:06:013,24822,-0.00809,-0.06854,9.81844,0.00000,0.00000,0.00161,0.20600,0.18019,-0.61532,-0.38430,54.50125,-0.00233,-0.88901,0.00297,0.00155,-0.45788,1,0,
06.23 16:36:06:022,24823,-0.01404,-0.05469,9.77778,0.00000,0.00000,0.00161,0.20303,0.18119,-0.61584,-0.38337,54.50183,-0.00300,-0.88900,0.00296,0.00156,-0.45789,1,0,
06.23 16:36:06:031,24824,-0.01164,-0.05933,9.80222,0.00000,0.00000,0.00161,0.20252,0.18015,-0.61386,-0.38452,54.50288,-0.00228,-0.88900,0.00297,0.00155,-0.45789,1,0,
06.23 16:36:06:042,24825,0.00174,-0.06371,9.81758,0.00000,0.00000,0.00161,0.20203,0.18267,-0.61485,-0.38340,54.50198,-0.00230,-0.88900,0.00297,0.00155,-0.45789,1,0,
06.23 16:36:06:051,24826,0.00362,-0.06597,9.79795,0.00000,0.00000,0.00161,0.20400,0.18311,-0.61184,-0.38221,54.50146,-0.00250,-0.88901,0.00296,0.00155,-0.45788,1,0,
06.23 16:36:06:062,24827,-0.01797,-0.04557,9.77976,0.00000,0.00000,0.00161,0.20152,0.18164,-0.61336,-0.38254,54.50164,-0.00255,-0.88901,0.00296,0.00155,-0.45788,1,0,
06.23 16:36:06:071,24828,0.01511,-0.05396,9.82597,0.00000,0.00000,0.00161,0.20153,0.18266,-0.61436,-0.38181,54.50125,-0.00189,-0.88901,0.00295,0.00154,-0.45788,1,0,
06.23 16:36:06:081,24829,-0.00328,-0.07265,9.78467,0.00000,0.00000,0.00161,0.20350,0.18063,-0.61236,-0.38252,54.50086,-0.00138,-0.88901,0.00296,0.00154,-0.45788,1,0,
06.23 16:36:06:091,24830,-0.00171,-0.06164,9.80518,0.00000,0.00000,0.00161,0.20203,0.18218,-0.61535,-0.38251,54.50002,-0.00084,-0.88901,0.00296,0.00153,-0.45787,1,0,
06.23 16:36:06:101,24831,-0.01208,-0.06977,9.78356,0.00000,0.00000,0.00161,0.20104,0.18067,-0.61486,-0.38193,54.50038,-0.00127,-0.88901,0.00296,0.00154,-0.45787,1,0,
06.23 16:36:06:111,24832,-0.01271,-0.07662,9.80418,0.00000,0.00000,0.00161,0.20301,0.18163,-0.61285,-0.38177,54.50120,-0.00003,-0.88901,0.00296,0.00153,-0.45788,1,0,
06.23 16:36:06:122,24833,-0.01967,-0.05806,9.78363,0.00000,0.00000,0.00161,0.20202,0.18264,-0.61336,-0.38040,54.50127,-0.00008,-0.88901,0.00295,0.00152,-0.45788,1,0,
06.23 16:36:06:131,24834,-0.00622,-0.06574,9.81300,0.00000,0.00000,0.00161,0.20055,0.18220,-0.61636,-0.38077,54.50090,-0.00124,-0.88901,0.00295,0.00153,-0.45788,1,0,
06.23 16:36:06:141,24835,-0.01253,-0.05619,9.79247,0.00000,0.00000,0.00161,0.20054,0.18316,-0.61436,-0.38300,54.50163,-0.00179,-0.88901,0.00296,0.00154,-0.45788,1,0,
06.23 16:36:06:151,24836,0.00974,-0.05889,9.80473,0.00000,0.00000,0.00161,0.20251,0.18363,-0.61285,-0.38263,54.50134,-0.00201,-0.88901,0.00296,0.00154,-0.45788,1,0,
06.23 16:36:06:161,24837,-0.00721,-0.05493,9.78782,0.00000,0.00000,0.00161,0.20153,0.18066,-0.61436,-0.38340,54.50105,-0.00224,-0.88901,0.00297,0.00155,-0.45788,1,0,
06.23 16:36:06:171,24838,0.00791,-0.06133,9.80523,0.00000,0.00000,0.00161,0.20152,0.18162,-0.61237,-0.38190,54.50075,-0.00239,-0.88901,0.00295,0.00154,-0.45788,1,0,
06.23 16:36:06:182,24839,0.00636,-0.04195,9.79266,0.00000,0.00000,0.00161,0.20301,0.18063,-0.61286,-0.38010,54.50010,-0.00274,-0.88901,0.00294,0.00154,-0.45787,1,0,
06.23 16:36:06:191,24840,-0.00331,-0.03465,9.79340,0.00000,0.00000,0.00161,0.20253,0.18019,-0.61585,-0.38106,54.50060,-0.00267,-0.88901,0.00295,0.00154,-0.45788,1,0,
06.23 16:36:06:201,24841,-0.00288,-0.04399,9.78124,0.00000,0.00000,0.00161,0.20302,0.17918,-0.61485,-0.38066,54.50030,-0.00249,-0.88901,0.00294,0.00154,-0.45787,1,0,
06.23 16:36:06:211,24842,-0.00283,-0.06684,9.82807,0.00000,0.00000,0.00161,0.20401,0.18117,-0.61434,-0.38055,54.49966,-0.00247,-0.88901,0.00294,0.00154,-0.45787,1,0,
06.23 16:36:06:222,24843,-0.00379,-0.07243,9.78503,0.00000,0.00000,0.00161,0.20302,0.18365,-0.61384,-0.38061,54.49955,-0.00228,-0.88901,0.00294,0.00154,-0.45787,1,0,
06.23 16:36:06:230,24844,-0.02084,-0.07483,9.80349,0.00000,0.00000,0.00161,0.20251,0.18063,-0.61286,-0.38037,54.49950,-0.00202,-0.88901,0.00294,0.00154,-0.45787,1,0,
06.23 16:36:06:241,24845,-0.00234,-0.07511,9.79025,0.00000,0.00000,0.00161,0.20203,0.18169,-0.61585,-0.38060,54.49902,-0.00251,-0.88902,0.00294,0.00154,-0.45786,1,0,
06.23 16:36:06:252,24846,-0.00735,-0.05131,9.81872,0.00000,0.00000,0.00161,0.20300,0.18159,-0.61086,-0.38030,54.49925,-0.00185,-0.88902,0.00294,0.00153,-0.45787,1,0,
06.23 16:36:06:261,24847,0.00830,-0.05247,9.76515,0.00000,0.00000,0.00161,0.20352,0.18020,-0.61584,-0.37839,54.49825,-0.00163,-0.88902,0.00293,0.00152,-0.45786,1,0,
06.23 16:36:06:271,24848,0.00952,-0.06274,9.81386,0.00000,0.00000,0.00161,0.20353,0.18023,-0.61733,-0.37707,54.49865,-0.00272,-0.88902,0.00291,0.00153,-0.45786,1,0,
06.23 16:36:06:281,24849,0.02039,-0.04484,9.79629,0.00000,0.00000,0.00161,0.20103,0.18213,-0.61287,-0.37649,54.49910,-0.00285,-0.88902,0.00291,0.00153,-0.45786,1,0,
06.23 16:36:06:292,24850,0.00279,-0.06303,9.77669,0.00000,0.00000,0.00161,0.20501,0.18269,-0.61532,-0.37562,54.49887,-0.00299,-0.88902,0.00290,0.00152,-0.45786,1,0,
06.23 16:36:06:301,24851,-0.01727,-0.03464,9.80535,0.00000,0.00000,0.00161,0.20301,0.18163,-0.61285,-0.37728,54.50056,-0.00244,-0.88901,0.00292,0.00153,-0.45788,1,0,
06.23 16:36:06:311,24852,-0.03503,-0.05708,9.80122,0.00000,0.00000,0.00161,0.20154,0.18118,-0.61536,-0.37802,54.50135,-0.00276,-0.88901,0.00292,0.00153,-0.45788,1,0,
06.23 16:36:06:321,24853,-0.02693,-0.06314,9.82058,0.00000,0.00000,0.00161,0.20202,0.18065,-0.61386,-0.37884,54.50148,-0.00376,-0.88901,0.00292,0.00154,-0.45788,1,0,
06.23 16:36:06:331,24854,-0.02119,-0.06087,9.79679,0.00000,0.00000,0.00161,0.20301,0.18061,-0.61186,-0.37926,54.50111,-0.00307,-0.88901,0.00293,0.00154,-0.45788,1,0,
06.23 16:36:06:342,24855,-0.00202,-0.04183,9.80396,0.00000,0.00000,0.00161,0.20155,0.18022,-0.61735,-0.37860,54.50122,-0.00385,-0.88901,0.00292,0.00154,-0.45788,1,0,
06.23 16:36:06:352,24856,-0.00604,-0.04944,9.78248,0.00000,0.00000,0.00161,0.20153,0.18215,-0.61386,-0.37965,54.50150,-0.00511,-0.88901,0.00292,0.00156,-0.45788,1,0,
06.23 16:36:06:362,24857,0.01133,-0.04272,9.78320,0.00000,0.00000,0.00161,0.20302,0.18165,-0.61385,-0.38071,54.50179,-0.00575,-0.88901,0.00293,0.00157,-0.45789,1,0,
06.23 16:36:06:371,24858,0.01347,-0.06712,9.80790,0.00000,0.00000,0.00161,0.20303,0.18020,-0.61584,-0.37994,54.50166,-0.00534,-0.88901,0.00293,0.00156,-0.45788,1,0,
06.23 16:36:06:381,24859,0.00250,-0.05585,9.80566,0.00000,0.00000,0.00161,0.20253,0.18018,-0.61535,-0.37850,54.50075,-0.00489,-0.88901,0.00292,0.00155,-0.45788,1,0,
06.23 16:36:06:391,24860,-0.00938,-0.05995,9.80795,0.00000,0.00000,0.00161,0.19955,0.18067,-0.61488,-0.37682,54.50043,-0.00514,-0.88901,0.00290,0.00155,-0.45787,1,0,
06.23 16:36:06:401,24861,-0.01776,-0.05920,9.78057,0.00000,0.00000,0.00161,0.20351,0.18115,-0.61335,-0.37662,54.50092,-0.00584,-0.88901,0.00290,0.00155,-0.45788,1,0,
06.23 16:36:06:412,24862,0.00316,-0.04513,9.81274,0.00000,0.00000,0.00161,0.20202,0.18313,-0.61286,-0.37796,54.50113,-0.00652,-0.88901,0.00291,0.00156,-0.45788,1,0,
06.23 16:36:06:421,24863,0.00488,-0.05531,9.79707,0.00000,0.00000,0.00161,0.20202,0.18165,-0.61386,-0.37765,54.50027,-0.00692,-0.88901,0.00290,0.00156,-0.45787,1,0,
06.23 16:36:06:431,24864,-0.01430,-0.05345,9.79414,0.00000,0.00000,0.00161,0.20252,0.18015,-0.61386,-0.37760,54.49937,-0.00637,-0.88901,0.00290,0.00156,-0.45787,1,0,
06.23 16:36:06:441,24865,-0.00006,-0.06846,9.80377,0.00000,0.00000,0.00161,0.20152,0.18314,-0.61336,-0.37892,54.49930,-0.00507,-0.88902,0.00292,0.00155,-0.45787,1,0,
06.23 16:36:06:452,24866,-0.02404,-0.05536,9.79469,0.00000,0.00000,0.00161,0.20252,0.18216,-0.61435,-0.37720,54.49890,-0.00410,-0.88902,0.00291,0.00154,-0.45786,1,0,
06.23 16:36:06:462,24867,-0.01396,-0.06397,9.80544,0.00000,0.00000,0.00161,0.20251,0.18362,-0.61235,-0.37617,54.49866,-0.00264,-0.88902,0.00291,0.00152,-0.45786,1,0,
06.23 16:36:06:471,24868,-0.03631,-0.05551,9.81674,0.00000,0.00000,0.00161,0.20103,0.18163,-0.61287,-0.37673,54.49869,-0.00309,-0.88902,0.00291,0.00153,-0.45786,1,0,
06.23 16:36:06:481,24869,-0.00811,-0.06543,9.80499,0.00000,0.00000,0.00161,0.20153,0.18216,-0.61436,-0.37559,54.49841,-0.00393,-0.88902,0.00290,0.00153,-0.45786,1,0,
06.23 16:36:06:492,24870,-0.00134,-0.06299,9.82347,0.00000,0.00000,0.00161,0.19905,0.18165,-0.61438,-0.37545,54.49764,-0.00419,-0.88902,0.00290,0.00153,-0.45785,1,0,
06.23 16:36:06:502,24871,0.00960,-0.05134,9.77786,0.00000,0.00000,0.00161,0.19955,0.17967,-0.61488,-0.37578,54.49811,-0.00438,-0.88902,0.00290,0.00154,-0.45786,1,0,
06.23 16:36:06:511,24872,0.00535,-0.03557,9.81443,0.00000,0.00000,0.00161,0.20302,0.17969,-0.61535,-0.37582,54.49804,-0.00514,-0.88902,0.00290,0.00154,-0.45786,1,0,
06.23 16:36:06:521,24873,-0.00451,-0.03301,9.77161,0.00000,0.00000,0.00161,0.20451,0.18317,-0.61433,-0.37562,54.49700,-0.00427,-0.88902,0.00290,0.00153,-0.45785,1,0,
06.23 16:36:06:531,24874,-0.02043,-0.04845,9.80821,0.00000,0.00000,0.00161,0.20300,0.18360,-0.61135,-0.37640,54.49696,-0.00414,-0.88902,0.00290,0.00154,-0.45785,1,0,
06.23 16:36:06:542,24875,0.00492,-0.06429,9.78356,0.00000,0.00000,0.00161,0.20301,0.18214,-0.61335,-0.37531,54.49690,-0.00381,-0.88902,0.00290,0.00153,-0.45785,1,0,
06.23 16:36:06:552,24876,-0.00475,-0.05830,9.81841,0.00000,0.00000,0.00161,0.20253,0.18117,-0.61485,-0.37557,54.49757,-0.00412,-0.88902,0.00290,0.00153,-0.45785,1,0,
06.23 16:36:06:562,24877,-0.01228,-0.05712,9.76255,0.00000,0.00000,0.00161,0.20400,0.18311,-0.61184,-0.37511,54.49747,-0.00337,-0.88902,0.00290,0.00152,-0.45785,1,0,
06.23 16:36:06:571,24878,-0.02943,-0.06771,9.82030,0.00000,0.00000,0.00161,0.20153,0.18318,-0.61535,-0.37556,54.49690,-0.00269,-0.88902,0.00290,0.00152,-0.45785,1,0,
06.23 16:36:06:582,24879,-0.00616,-0.04111,9.79738,0.00000,0.00000,0.00161,0.20253,0.18167,-0.61485,-0.37609,54.49775,-0.00283,-0.88902,0.00291,0.00152,-0.45785,1,0,
06.23 16:36:06:592,24880,-0.02258,-0.06125,9.81424,0.00000,0.00000,0.00161,0.20350,0.18161,-0.61185,-0.37632,54.49723,-0.00189,-0.88902,0.00291,0.00152,-0.45785,1,0,
06.23 16:36:06:600,24881,-0.02478,-0.07575,9.79068,0.00000,0.00000,0.00161,0.20301,0.18214,-0.61335,-0.37832,54.49692,-0.00169,-0.88902,0.00293,0.00152,-0.45785,1,0,
06.23 16:36:06:611,24882,-0.00482,-0.06668,9.80845,0.00000,0.00000,0.00161,0.20153,0.18368,-0.61535,-0.37880,54.49734,-0.00181,-0.88902,0.00293,0.00153,-0.45785,1,0,
06.23 16:36:06:621,24883,-0.01556,-0.06481,9.78546,0.00000,0.00000,0.00161,0.20302,0.18265,-0.61385,-0.37691,54.49722,-0.00137,-0.88902,0.00292,0.00152,-0.45785,1,0,
06.23 16:36:06:632,24884,-0.00605,-0.06122,9.78572,0.00000,0.00000,0.00161,0.20302,0.18215,-0.61385,-0.37588,54.49730,-0.00100,-0.88902,0.00291,0.00151,-0.45785,1,0,
06.23 16:36:06:642,24885,-0.01215,-0.05754,9.78179,0.00000,0.00000,0.00161,0.20204,0.18220,-0.61634,-0.37566,54.49674,-0.00175,-0.88903,0.00291,0.00151,-0.45785,1,0,
06.23 16:36:06:652,24886,0.01497,-0.05496,9.80354,0.00000,0.00000,0.00161,0.20351,0.18065,-0.61335,-0.37379,54.49592,-0.00163,-0.88903,0.00289,0.00151,-0.45784,1,0,
06.23 16:36:06:661,24887,0.01675,-0.06878,9.79991,0.00000,0.00000,0.00161,0.20301,0.18214,-0.61335,-0.37425,54.49576,-0.00251,-0.88903,0.00289,0.00151,-0.45784,1,0,
06.23 16:36:06:672,24888,0.01519,-0.04445,9.79190,0.00000,0.00000,0.00161,0.20104,0.18019,-0.61586,-0.37441,54.49636,-0.00265,-0.88903,0.00289,0.00152,-0.45784,1,0,
06.23 16:36:06:681,24889,0.00535,-0.05131,9.80199,0.00000,0.00000,0.00161,0.20252,0.18066,-0.61435,-0.37305,54.49609,-0.00309,-0.88903,0.00288,0.00151,-0.45784,1,0,
06.23 16:36:06:692,24890,0.00505,-0.04653,9.78360,0.00000,0.00000,0.00161,0.20252,0.18264,-0.61335,-0.37347,54.49660,-0.00211,-0.88903,0.00289,0.00151,-0.45785,1,0,
06.23 16:36:06:702,24891,-0.01404,-0.06526,9.79729,0.00000,0.00000,0.00161,0.20251,0.18512,-0.61235,-0.37204,54.49665,-0.00225,-0.88903,0.00288,0.00150,-0.45785,1,0,
06.23 16:36:06:711,24892,-0.01843,-0.06281,9.80811,0.00000,0.00000,0.00161,0.20252,0.18366,-0.61434,-0.37456,54.49803,-0.00135,-0.88902,0.00290,0.00151,-0.45786,1,0,
06.23 16:36:06:722,24893,0.00084,-0.06176,9.78697,0.00000,0.00000,0.00161,0.20053,0.18311,-0.61237,-0.37425,54.49920,-0.00090,-0.88902,0.00290,0.00150,-0.45787,1,0,
06.23 16:36:06:749,24894,-0.00269,-0.04248,9.77893,0.00000,0.00000,0.00161,0.20251,0.18312,-0.61235,-0.37387,54.49880,-0.00082,-0.88902,0.00290,0.00150,-0.45786,1,0,
06.23 16:36:06:753,24895,-0.00940,-0.06955,9.81257,0.00000,0.00000,0.00161,0.20104,0.17967,-0.61487,-0.37295,54.49878,-0.00097,-0.88902,0.00289,0.00150,-0.45786,1,0,
06.23 16:36:06:755,24896,-0.01492,-0.06223,9.79292,0.00000,0.00000,0.00161,0.20251,0.18263,-0.61285,-0.37228,54.49900,-0.00059,-0.88902,0.00289,0.00149,-0.45786,1,0,
06.23 16:36:06:762,24897,-0.01170,-0.08054,9.80690,0.00000,0.00000,0.00161,0.20351,0.18364,-0.61334,-0.37115,54.49795,-0.00140,-0.88902,0.00287,0.00149,-0.45786,1,0,
06.23 16:36:06:772,24898,-0.01275,-0.06426,9.80217,0.00000,0.00000,0.00161,0.20203,0.18116,-0.61436,-0.37230,54.49897,-0.00284,-0.88902,0.00288,0.00151,-0.45786,1,0,
06.23 16:36:06:781,24899,-0.01722,-0.07104,9.80823,0.00000,0.00000,0.00161,0.20599,0.18116,-0.61383,-0.37216,54.49921,-0.00295,-0.88902,0.00288,0.00151,-0.45787,1,0,
06.23 16:36:06:792,24900,-0.00852,-0.02529,9.79488,0.00000,0.00000,0.00161,0.19954,0.18215,-0.61437,-0.37089,54.49842,-0.00434,-0.88902,0.00286,0.00152,-0.45786,1,0,
06.23 16:36:06:801,24901,-0.00810,-0.04740,9.81460,0.00000,0.00000,0.00161,0.20253,0.18118,-0.61535,-0.36869,54.49808,-0.00461,-0.88902,0.00284,0.00151,-0.45786,1,0,
06.23 16:36:06:812,24902,0.01797,-0.03933,9.79047,0.00000,0.00000,0.00161,0.20252,0.18415,-0.61384,-0.36630,54.49823,-0.00455,-0.88902,0.00282,0.00150,-0.45786,1,0,
06.23 16:36:06:821,24903,-0.01867,-0.05789,9.80921,0.00000,0.00000,0.00161,0.20105,0.18371,-0.61684,-0.36658,54.49877,-0.00377,-0.88902,0.00283,0.00149,-0.45786,1,0,
06.23 16:36:06:831,24904,-0.00763,-0.06191,9.79068,0.00000,0.00000,0.00161,0.20004,0.18414,-0.61386,-0.36804,54.49931,-0.00425,-0.88902,0.00284,0.00150,-0.45787,1,0,
06.23 16:36:06:842,24905,0.00032,-0.05571,9.80652,0.00000,0.00000,0.00161,0.19855,0.18216,-0.61488,-0.36698,54.49899,-0.00325,-0.88902,0.00283,0.00149,-0.45786,1,0,
06.23 16:36:06:851,24906,-0.00429,-0.05311,9.78489,0.00000,0.00000,0.00161,0.20450,0.18366,-0.61383,-0.36636,54.49898,-0.00280,-0.88902,0.00283,0.00149,-0.45786,1,0,
06.23 16:36:06:862,24907,-0.00080,-0.06336,9.77893,0.00000,0.00000,0.00161,0.20104,0.18219,-0.61585,-0.36685,54.49873,-0.00348,-0.88902,0.00283,0.00149,-0.45786,1,0,
06.23 16:36:06:871,24908,0.02588,-0.05865,9.78298,0.00000,0.00000,0.00161,0.20202,0.18164,-0.61336,-0.36568,54.49857,-0.00325,-0.88902,0.00282,0.00149,-0.45786,1,0,
06.23 16:36:06:882,24909,-0.00899,-0.04417,9.78014,0.00000,0.00000,0.00161,0.20451,0.18067,-0.61434,-0.36792,54.49884,-0.00273,-0.88902,0.00284,0.00149,-0.45786,1,0,
06.23 16:36:06:892,24910,-0.01140,-0.04455,9.80234,0.00000,0.00000,0.00161,0.20005,0.18170,-0.61636,-0.36756,54.49861,-0.00236,-0.88902,0.00284,0.00149,-0.45786,1,0,
06.23 16:36:06:901,24911,-0.00190,-0.04849,9.76598,0.00000,0.00000,0.00161,0.20351,0.18166,-0.61385,-0.36713,54.49897,-0.00277,-0.88902,0.00284,0.00149,-0.45786,1,0,
06.23 16:36:06:911,24912,-0.00666,-0.05411,9.81245,0.00000,0.00000,0.00161,0.20152,0.18212,-0.61237,-0.36774,54.49955,-0.00274,-0.88901,0.00284,0.00149,-0.45787,1,0,
06.23 16:36:06:921,24913,-0.02936,-0.06651,9.80289,0.00000,0.00000,0.00161,0.20053,0.18163,-0.61287,-0.36602,54.49841,-0.00214,-0.88902,0.00283,0.00148,-0.45786,1,0,
06.23 16:36:06:931,24914,0.00744,-0.04066,9.82797,0.00000,0.00000,0.00161,0.20501,0.18419,-0.61532,-0.36568,54.49866,-0.00218,-0.88902,0.00283,0.00148,-0.45786,1,0,
06.23 16:36:06:941,24915,0.00645,-0.06814,9.78193,0.00000,0.00000,0.00161,0.20351,0.18215,-0.61384,-0.36719,54.49794,-0.00251,-0.88902,0.00284,0.00149,-0.45786,1,0,
06.23 16:36:06:952,24916,0.00376,-0.06476,9.79693,0.00000,0.00000,0.00161,0.20202,0.18215,-0.61386,-0.36683,54.49821,-0.00336,-0.88902,0.00283,0.00149,-0.45786,1,0,
06.23 16:36:06:962,24917,-0.02232,-0.06608,9.81743,0.00000,0.00000,0.00161,0.20153,0.18117,-0.61486,-0.36775,54.49829,-0.00438,-0.88902,0.00284,0.00150,-0.45786,1,0,
06.23 16:36:06:971,24918,-0.00461,-0.05476,9.81898,0.00000,0.00000,0.00161,0.20103,0.18116,-0.61436,-0.36676,54.49811,-0.00543,-0.88902,0.00282,0.00151,-0.45786,1,0,
06.23 16:36:06:981,24919,-0.01430,-0.07025,9.79538,0.00000,0.00000,0.00161,0.20153,0.18117,-0.61486,-0.36608,54.49768,-0.00537,-0.88902,0.00282,0.00150,-0.45785,1,0,
06.23 16:36:06:991,24920,-0.00769,-0.04826,9.80070,0.00000,0.00000,0.00161,0.20103,0.18116,-0.61436,-0.36713,54.49802,-0.00474,-0.88902,0.00283,0.00150,-0.45786,1,0,
06.23 16:36:07:001,24921,0.00238,-0.07023,9.79128,0.00000,0.00000,0.00161,0.20251,0.18262,-0.61236,-0.39369,54.51174,0.00617,-0.88896,0.00308,0.00153,-0.45796,1,0,
06.23 16:36:07:012,24922,0.01059,-0.05377,9.79176,0.00000,0.00000,0.00161,0.20353,0.18172,-0.61683,-0.39271,54.51126,0.00611,-0.88897,0.00307,0.00152,-0.45796,1,0,
06.23 16:36:07:022,24923,-0.01739,-0.05764,9.81274,0.00000,0.00000,0.00161,0.19953,0.18211,-0.61238,-0.39225,54.51215,0.00553,-0.88896,0.00307,0.00152,-0.45797,1,0,
06.23 16:36:07:032,24924,0.01410,-0.03538,9.79943,0.00000,0.00000,0.00161,0.20449,0.18411,-0.61184,-0.39106,54.51044,0.00460,-0.88897,0.00305,0.00153,-0.45795,1,0,
06.23 16:36:07:042,24925,0.00929,-0.04772,9.77793,0.00000,0.00000,0.00161,0.20252,0.18515,-0.61384,-0.39202,54.50921,0.00456,-0.88898,0.00306,0.00153,-0.45794,1,0,
06.23 16:36:07:051,24926,-0.00920,-0.06939,9.77850,0.00000,0.00000,0.00161,0.20251,0.18361,-0.61186,-0.39164,54.50848,0.00516,-0.88898,0.00306,0.00153,-0.45794,1,0,
06.23 16:36:07:062,24927,-0.01587,-0.05275,9.84726,0.00000,0.00000,0.00161,0.20302,0.18016,-0.61385,-0.39061,54.50826,0.00474,-0.88898,0.00305,0.00152,-0.45794,1,0,
06.23 16:36:07:071,24928,-0.01213,-0.06095,9.80179,0.00000,0.00000,0.00161,0.20351,0.18013,-0.61236,-0.39101,54.50842,0.00488,-0.88898,0.00305,0.00152,-0.45794,1,0,
06.23 16:36:07:082,24929,0.00102,-0.05894,9.77495,0.00000,0.00000,0.00161,0.20252,0.18317,-0.61484,-0.39071,54.50869,0.00462,-0.88898,0.00305,0.00153,-0.45794,1,0,
06.23 16:36:07:092,24930,0.00028,-0.04568,9.81748,0.00000,0.00000,0.00161,0.20252,0.18116,-0.61435,-0.38924,54.50744,0.00440,-0.88898,0.00304,0.00152,-0.45793,1,0,
06.23 16:36:07:102,24931,-0.00394,-0.05036,9.80568,0.00000,0.00000,0.00161,0.20201,0.18111,-0.61187,-0.39089,54.50874,0.00386,-0.88898,0.00305,0.00153,-0.45794,1,0,
06.23 16:36:07:112,24932,0.00080,-0.07094,9.77991,0.00000,0.00000,0.00161,0.20153,0.18166,-0.61436,-0.39079,54.50918,0.00436,-0.88898,0.00305,0.00153,-0.45794,1,0,
06.23 16:36:07:121,24933,-0.02638,-0.07055,9.80957,0.00000,0.00000,0.00161,0.20253,0.18268,-0.61534,-0.38981,54.50939,0.00574,-0.88897,0.00305,0.00151,-0.45794,1,0,
06.23 16:36:07:130,24934,0.02252,-0.06266,9.71994,0.00000,0.00000,0.00161,0.20203,0.18118,-0.61535,-0.38971,54.50941,0.00549,-0.88897,0.00305,0.00151,-0.45794,1,0,
06.23 16:36:07:140,24935,-0.00666,-0.08890,9.84716,0.00000,0.00000,0.00161,0.20303,0.18022,-0.61684,-0.38970,54.50898,0.00596,-0.88898,0.00305,0.00151,-0.45794,1,0,
06.23 16:36:07:151,24936,-0.00331,-0.03795,9.75637,0.00000,0.00000,0.00161,0.20054,0.18068,-0.61537,-0.39125,54.51004,0.00665,-0.88897,0.00306,0.00151,-0.45795,1,0,
06.23 16:36:07:161,24937,0.01123,-0.04952,9.81989,0.00000,0.00000,0.00161,0.20202,0.18213,-0.61286,-0.39248,54.51033,0.00553,-0.88897,0.00307,0.00153,-0.45795,1,0,
06.23 16:36:07:172,24938,0.01364,-0.06737,9.79311,0.00000,0.00000,0.00161,0.20202,0.18064,-0.61336,-0.39303,54.51059,0.00446,-0.88897,0.00307,0.00154,-0.45795,1,0,
06.23 16:36:07:182,24939,-0.00444,-0.04813,9.80582,0.00000,0.00000,0.00161,0.20252,0.18364,-0.61335,-0.39237,54.50948,0.00522,-0.88897,0.00306,0.00153,-0.45794,1,0,
06.23 16:36:07:194,24940,-0.00672,-0.04975,9.74348,0.00000,0.00000,0.00161,0.20301,0.18214,-0.61335,-0.39131,54.50943,0.00532,-0.88897,0.00306,0.00152,-0.45794,1,0,
06.23 16:36:07:202,24941,-0.01258,-0.05978,9.86192,0.00000,0.00000,0.00161,0.20251,0.18110,-0.61137,-0.39117,54.50885,0.00571,-0.88898,0.00306,0.00152,-0.45794,1,0,
06.23 16:36:07:211,24942,0.00045,-0.06567,9.73168,0.00000,0.00000,0.00161,0.20153,0.18215,-0.61386,-0.39166,54.50961,0.00489,-0.88897,0.00306,0.00153,-0.45795,1,0,
06.23 16:36:07:220,24943,-0.01927,-0.04065,9.84221,0.00000,0.00000,0.00161,0.20203,0.18069,-0.61585,-0.39197,54.51004,0.00538,-0.88897,0.00306,0.00152,-0.45795,1,0,
06.23 16:36:07:232,24944,-0.00804,-0.05140,9.77690,0.00000,0.00000,0.00161,0.20154,0.18168,-0.61535,-0.39108,54.50963,0.00510,-0.88897,0.00305,0.00152,-0.45795,1,0,
06.23 16:36:07:242,24945,-0.03112,-0.05262,9.80480,0.00000,0.00000,0.00161,0.20104,0.18017,-0.61487,-0.39173,54.50955,0.00566,-0.88897,0.00306,0.00152,-0.45795,1,0,
06.23 16:36:07:253,24946,-0.00534,-0.05453,9.77473,0.00000,0.00000,0.00161,0.20203,0.18218,-0.61535,-0.39021,54.51013,0.00594,-0.88897,0.00305,0.00151,-0.45795,1,0,
06.23 16:36:07:262,24947,-0.00365,-0.05568,9.82652,0.00000,0.00000,0.00161,0.20103,0.18213,-0.61287,-0.39051,54.51054,0.00657,-0.88897,0.00306,0.00151,-0.45795,1,0,
06.23 16:36:07:271,24948,-0.00834,-0.07255,9.85363,0.00000,0.00000,0.00161,0.20153,0.17916,-0.61437,-0.39020,54.51009,0.00771,-0.88897,0.00306,0.00150,-0.45795,1,0,
06.23 16:36:07:281,24949,-0.01338,0.00188,9.78429,0.00000,0.00000,0.00161,0.20252,0.18215,-0.61385,-0.38941,54.50982,0.00938,-0.88897,0.00306,0.00148,-0.45795,1,0,
06.23 16:36:07:291,24950,0.00828,-0.07594,9.80342,0.00000,0.00000,0.00161,0.20352,0.18219,-0.61583,-0.38793,54.50948,0.00880,-0.88897,0.00304,0.00148,-0.45795,1,0,
06.23 16:36:07:300,24951,-0.01336,-0.06183,9.79187,0.00000,0.00000,0.00161,0.20351,0.18065,-0.61335,-0.38858,54.50966,0.00845,-0.88897,0.00305,0.00149,-0.45795,1,0,
06.23 16:36:07:311,24952,-0.04171,-0.09536,9.81460,0.00000,0.00000,0.00161,0.20103,0.17916,-0.61437,-0.38909,54.51020,0.00886,-0.88897,0.00305,0.00149,-0.45795,1,0,
06.23 16:36:07:322,24953,0.00407,-0.08315,9.79583,0.00000,0.00000,0.00161,0.20301,0.18114,-0.61335,-0.38980,54.51095,0.00796,-0.88897,0.00306,0.00150,-0.45796,1,0,
06.23 16:36:07:332,24954,-0.02742,-0.05041,9.85579,0.00000,0.00000,0.00161,0.19955,0.18068,-0.61537,-0.39021,54.51081,0.00725,-0.88897,0.00306,0.00150,-0.45796,1,0,
06.23 16:36:07:341,24955,-0.01330,-0.03458,9.71959,0.00000,0.00000,0.00161,0.20251,0.18161,-0.61186,-0.38952,54.51130,0.00810,-0.88897,0.00305,0.00149,-0.45796,1,0,
06.23 16:36:07:350,24956,-0.00306,-0.06191,9.82456,0.00000,0.00000,0.00161,0.20302,0.18067,-0.61435,-0.39072,54.51055,0.00870,-0.88897,0.00307,0.00149,-0.45795,1,0,
06.23 16:36:07:361,24957,-0.00501,-0.05586,9.80082,0.00000,0.00000,0.00161,0.20053,0.18114,-0.61337,-0.38884,54.51094,0.00884,-0.88897,0.00305,0.00149,-0.45796,1,0,
06.23 16:36:07:371,24958,0.01189,-0.07097,9.79667,0.00000,0.00000,0.00161,0.20351,0.18166,-0.61385,-0.38818,54.51097,0.00846,-0.88897,0.00305,0.00149,-0.45796,1,0,
06.23 16:36:07:381,24959,0.02213,-0.04517,9.76794,0.00000,0.00000,0.00161,0.20301,0.17863,-0.61237,-0.38835,54.51095,0.00839,-0.88897,0.00305,0.00149,-0.45796,1,0,
06.23 16:36:07:391,24960,0.00743,-0.04406,9.82823,0.00000,0.00000,0.00161,0.20252,0.18266,-0.61435,-0.38793,54.51020,0.00928,-0.88897,0.00305,0.00148,-0.45795,1,0,
06.23 16:36:07:402,24961,-0.01520,-0.05004,9.79769,0.00000,0.00000,0.00161,0.20202,0.18215,-0.61386,-0.38961,54.51033,0.00992,-0.88897,0.00306,0.00148,-0.45795,1,0,
06.23 16:36:07:412,24962,-0.01960,-0.06112,9.78045,0.00000,0.00000,0.00161,0.20004,0.18067,-0.61487,-0.38933,54.51070,0.01164,-0.88897,0.00307,0.00147,-0.45795,1,0,
06.23 16:36:07:421,24963,-0.02068,-0.06506,9.80406,0.00000,0.00000,0.00161,0.20152,0.18164,-0.61336,-0.39027,54.51066,0.01171,-0.88897,0.00307,0.00147,-0.45795,1,0,
06.23 16:36:07:432,24964,-0.00684,-0.07476,9.80206,0.00000,0.00000,0.00161,0.20301,0.18163,-0.61285,-0.39034,54.51068,0.01081,-0.88897,0.00307,0.00148,-0.45795,1,0,
06.23 16:36:07:441,24965,-0.01506,-0.06896,9.79631,0.00000,0.00000,0.00161,0.20005,0.18019,-0.61587,-0.38939,54.51007,0.01037,-0.88897,0.00306,0.00148,-0.45795,1,0,
06.23 16:36:07:451,24966,-0.01576,-0.06055,9.80210,0.00000,0.00000,0.00161,0.20352,0.18218,-0.61534,-0.38857,54.51009,0.00946,-0.88897,0.00305,0.00148,-0.45795,1,0,
06.23 16:36:07:460,24967,0.00427,-0.06711,9.81035,0.00000,0.00000,0.00161,0.20152,0.18062,-0.61237,-0.38970,54.51052,0.00885,-0.88897,0.00306,0.00149,-0.45795,1,0,
06.23 16:36:07:471,24968,-0.00504,-0.05388,9.79545,0.00000,0.00000,0.00161,0.20252,0.18215,-0.61385,-0.38964,54.51067,0.00882,-0.88897,0.00306,0.00149,-0.45795,1,0,
06.23 16:36:07:481,24969,-0.00275,-0.05025,9.79252,0.00000,0.00000,0.00161,0.20053,0.18215,-0.61387,-0.38944,54.51167,0.00899,-0.88897,0.00306,0.00149,-0.45796,1,0,
06.23 16:36:07:491,24970,0.02578,-0.04876,9.76288,0.00000,0.00000,0.00161,0.20300,0.18110,-0.61136,-0.38873,54.51084,0.00805,-0.88897,0.00305,0.00149,-0.45796,1,0,
06.23 16:36:07:501,24971,-0.03133,-0.08326,9.85704,0.00000,0.00000,0.00161,0.20053,0.18263,-0.61287,-0.38748,54.51077,0.00844,-0.88897,0.00304,0.00148,-0.45796,1,0,
06.23 16:36:07:511,24972,-0.00507,-0.04195,9.69505,0.00000,0.00000,0.00161,0.20103,0.18115,-0.61387,-0.39086,54.51077,0.00752,-0.88897,0.00306,0.00150,-0.45796,1,0,
06.23 16:36:07:521,24973,-0.00193,-0.07749,9.81257,0.00000,0.00000,0.00161,0.20103,0.18014,-0.61337,-0.39139,54.51062,0.00639,-0.88897,0.00306,0.00151,-0.45795,1,0,
06.23 16:36:07:531,24974,-0.03181,-0.04581,9.83829,0.00000,0.00000,0.00161,0.20204,0.18320,-0.61634,-0.39046,54.50935,0.00875,-0.88897,0.00306,0.00149,-0.45794,1,0,
06.23 16:36:07:541,24975,-0.01348,-0.06377,9.73461,0.00000,0.00000,0.00161,0.20153,0.18167,-0.61486,-0.39017,54.50906,0.00787,-0.88898,0.00306,0.00150,-0.45794,1,0,
06.23 16:36:07:551,24976,-0.01696,-0.05454,9.79450,0.00000,0.00000,0.00161,0.20252,0.18366,-0.61434,-0.38903,54.50831,0.00776,-0.88898,0.00305,0.00149,-0.45794,1,0,
06.23 16:36:07:562,24977,0.00362,-0.08513,9.85851,0.00000,0.00000,0.00161,0.20052,0.18260,-0.61138,-0.38925,54.50856,0.00716,-0.88898,0.00305,0.00150,-0.45794,1,0,
06.23 16:36:07:571,24978,0.02484,-0.05003,9.67765,0.00000,0.00000,0.00161,0.20302,0.18067,-0.61435,-0.38922,54.50909,0.00655,-0.88898,0.00305,0.00150,-0.45794,1,0,
06.23 16:36:07:581,24979,-0.01470,-0.02855,9.87363,0.00000,0.00000,0.00161,0.20201,0.18061,-0.61187,-0.38920,54.50945,0.00661,-0.88897,0.00305,0.00150,-0.45794,1,0,
06.23 16:36:07:591,24980,-0.00676,-0.09679,9.72970,0.00000,0.00000,0.00161,0.20153,0.18017,-0.61486,-0.38965,54.50941,0.00742,-0.88897,0.00305,0.00150,-0.45794,1,0,
06.23 16:36:07:601,24981,-0.03252,-0.05400,9.84278,0.00000,0.00000,0.00161,0.20253,0.18068,-0.61535,-0.38911,54.50925,0.00806,-0.88897,0.00305,0.00149,-0.45794,1,0,
06.23 16:36:07:610,24982,-0.02598,-0.05427,9.76605,0.00000,0.00000,0.00161,0.20154,0.18020,-0.61635,-0.38840,54.50769,0.00835,-0.88898,0.00305,0.00149,-0.45793,1,0,
06.23 16:36:07:620,24983,-0.00331,-0.00729,9.80945,0.00000,0.00000,0.00161,0.20153,0.17864,-0.61337,-0.38868,54.50710,0.00694,-0.88898,0.00304,0.00150,-0.45793,1,0,
06.23 16:36:07:631,24984,-0.03099,-0.09808,9.80842,0.00000,0.00000,0.00161,0.20203,0.18019,-0.61585,-0.38778,54.50760,0.00714,-0.88898,0.00304,0.00149,-0.45793,1,0,
06.23 16:36:07:641,24985,-0.01714,-0.01544,9.77812,0.00000,0.00000,0.00161,0.20054,0.18118,-0.61536,-0.38704,54.50752,0.00673,-0.88898,0.00303,0.00149,-0.45793,1,0,
06.23 16:36:07:651,24986,0.02118,-0.06342,9.79156,0.00000,0.00000,0.00161,0.20005,0.18018,-0.61537,-0.38619,54.50841,0.00654,-0.88898,0.00302,0.00149,-0.45794,1,0,
06.23 16:36:07:662,24987,0.01620,-0.03330,9.81758,0.00000,0.00000,0.00161,0.20103,0.18316,-0.61436,-0.38585,54.50786,0.00797,-0.88898,0.00303,0.00148,-0.45793,1,0,
06.23 16:36:07:672,24988,-0.03394,-0.05306,9.80077,0.00000,0.00000,0.00161,0.20251,0.18160,-0.61136,-0.38688,54.50916,0.00846,-0.88898,0.00304,0.00148,-0.45794,1,0,
06.23 16:36:07:682,24989,0.00120,-0.05159,9.79772,0.00000,0.00000,0.00161,0.20303,0.18220,-0.61634,-0.38814,54.50912,0.00819,-0.88898,0.00304,0.00149,-0.45794,1,0,
06.23 16:36:07:691,24990,-0.03131,-0.06038,9.87747,0.00000,0.00000,0.00161,0.20303,0.18119,-0.61584,-0.38714,54.50914,0.00709,-0.88898,0.00303,0.00149,-0.45794,1,0,
06.23 16:36:07:701,24991,-0.02717,-0.08731,9.72412,0.00000,0.00000,0.00161,0.20352,0.18119,-0.61534,-0.38718,54.50911,0.00707,-0.88898,0.00303,0.00149,-0.45794,1,0,
06.23 16:36:07:711,24992,0.00185,-0.04508,9.84097,0.00000,0.00000,0.00161,0.20251,0.18010,-0.61137,-0.38633,54.50928,0.00660,-0.88897,0.00302,0.00149,-0.45794,1,0,
06.23 16:36:07:721,24993,0.03080,-0.04530,9.77879,0.00000,0.00000,0.00161,0.20202,0.18165,-0.61386,-0.38495,54.50930,0.00530,-0.88897,0.00301,0.00150,-0.45794,1,0,
06.23 16:36:07:731,24994,-0.00077,-0.05558,9.81004,0.00000,0.00000,0.00161,0.20253,0.18167,-0.61485,-0.38557,54.50982,0.00607,-0.88897,0.00302,0.00149,-0.45795,1,0,
06.23 16:36:07:741,24995,0.00299,-0.04720,9.79209,0.00000,0.00000,0.00161,0.20054,0.18065,-0.61387,-0.38530,54.51030,0.00625,-0.88897,0.00301,0.00149,-0.45795,1,0,
06.23 16:36:07:752,24996,-0.00072,-0.07458,9.87566,0.00000,0.00000,0.00161,0.20153,0.18116,-0.61436,-0.38481,54.50970,0.00559,-0.88897,0.00301,0.00149,-0.45795,1,0,
06.23 16:36:07:760,24997,-0.02857,-0.03583,9.74736,0.00000,0.00000,0.00161,0.20104,0.17917,-0.61487,-0.38539,54.51023,0.00594,-0.88897,0.00301,0.00149,-0.45795,1,0,
06.23 16:36:07:771,24998,-0.01185,-0.08073,9.76131,0.00000,0.00000,0.00161,0.20253,0.17970,-0.61635,-0.38433,54.51074,0.00637,-0.88897,0.00301,0.00149,-0.45795,1,0,
06.23 16:36:07:781,24999,0.00179,-0.10380,9.81803,0.00000,0.00000,0.00161,0.20104,0.17967,-0.61487,-0.38526,54.51059,0.00632,-0.88897,0.00301,0.00149,-0.45795,1,0,
06.23 16:36:07:792,25000,-0.00692,-0.09141,9.80406,0.00000,0.00000,0.00161,0.20202,0.18013,-0.61287,-0.38556,54.51064,0.00579,-0.88897,0.00301,0.00150,-0.45795,1,0,
06.23 16:36:07:801,25001,-0.00629,-0.04625,9.80940,0.00000,0.00000,0.00161,0.20302,0.18217,-0.61484,-0.38406,54.51130,0.00511,-0.88897,0.00300,0.00150,-0.45796,1,0,
06.23 16:36:07:811,25002,-0.00050,-0.00659,9.82723,0.00000,0.00000,0.00161,0.20400,0.18264,-0.61284,-0.38428,54.51068,0.00374,-0.88897,0.00300,0.00151,-0.45795,1,0,
06.23 16:36:07:821,25003,0.04457,-0.03855,9.74853,0.00000,0.00000,0.00161,0.20302,0.18117,-0.61485,-0.38365,54.50930,0.00341,-0.88897,0.00299,0.00151,-0.45794,1,0,
06.23 16:36:07:831,25004,-0.02970,-0.09914,9.80449,0.00000,0.00000,0.00161,0.20153,0.18065,-0.61386,-0.38387,54.50978,0.00482,-0.88897,0.00300,0.00150,-0.45795,1,0,
06.23 16:36:07:840,25005,-0.07051,-0.10367,9.83162,0.00000,0.00000,0.00161,0.20301,0.18213,-0.61285,-0.38549,54.51053,0.00509,-0.88897,0.00301,0.00150,-0.45795,1,0,
06.23 16:36:07:850,25006,0.05483,-0.06097,9.93695,0.00000,0.00000,0.00161,0.20351,0.18165,-0.61335,-0.38452,54.50906,0.00207,-0.88898,0.00299,0.00152,-0.45794,1,0,
06.23 16:36:07:861,25007,0.13175,-0.03753,9.40178,0.00000,0.00000,0.00161,0.20301,0.18064,-0.61335,-0.38521,54.50968,0.00089,-0.88897,0.00299,0.00153,-0.45795,1,0,
06.23 16:36:07:871,25008,-0.00386,-0.09245,10.14109,0.00000,0.00000,0.00161,0.20401,0.18118,-0.61484,-0.38465,54.51041,0.00400,-0.88897,0.00300,0.00151,-0.45795,1,0,
06.23 16:36:07:881,25009,-0.03756,0.13338,9.74939,0.00000,0.00000,0.00161,0.20104,0.18169,-0.61586,-0.38358,54.51180,0.00520,-0.88896,0.00300,0.00149,-0.45796,1,0,
06.23 16:36:07:891,25010,-0.06211,0.00227,9.77843,0.00000,0.00000,0.00161,0.20202,0.18212,-0.61236,-0.38567,54.51317,0.00689,-0.88896,0.00302,0.00149,-0.45797,1,0,
06.23 16:36:07:901,25011,-0.07287,-0.07574,9.75215,0.00000,0.00000,0.00161,0.20103,0.18115,-0.61387,-0.38533,54.51370,0.00816,-0.88896,0.00302,0.00148,-0.45798,1,0,
06.23 16:36:07:911,25012,-0.09564,-0.03851,9.94284,0.00000,0.00000,0.00161,0.20252,0.18315,-0.61385,-0.38530,54.51355,0.00887,-0.88896,0.00302,0.00147,-0.45798,1,0,
06.23 16:36:07:922,25013,0.00117,-0.08053,9.72805,0.00000,0.00000,0.00161,0.20351,0.18016,-0.61385,-0.38467,54.51245,0.00759,-0.88896,0.00301,0.00148,-0.45797,1,0,
06.23 16:36:07:931,25014,-0.00901,-0.01150,9.98724,0.00000,0.00000,0.00161,0.20203,0.18117,-0.61485,-0.38358,54.51167,0.00740,-0.88897,0.00301,0.00148,-0.45796,1,0,
06.23 16:36:07:941,25015,0.04740,-0.02614,9.51464,0.00000,0.00000,0.00161,0.20152,0.18013,-0.61287,-0.38531,54.51256,0.00562,-0.88896,0.00301,0.00150,-0.45797,1,0,
06.23 16:36:07:951,25016,-0.02953,-0.03977,9.99882,0.00000,0.00000,0.00161,0.20301,0.17964,-0.61286,-0.38570,54.51231,0.00652,-0.88896,0.00302,0.00149,-0.45797,1,0,
06.23 16:36:07:962,25017,-0.00976,-0.09260,9.68966,0.00000,0.00000,0.00161,0.20351,0.18114,-0.61285,-0.38658,54.51199,0.00732,-0.88896,0.00303,0.00149,-0.45796,1,0,
06.23 16:36:07:971,25018,-0.03635,-0.08248,9.85491,0.00000,0.00000,0.00161,0.20400,0.18064,-0.61285,-0.38709,54.51241,0.00880,-0.88896,0.00304,0.00148,-0.45797,1,0,
06.23 16:36:07:981,25019,0.01935,-0.10182,9.80020,0.00000,0.00000,0.00161,0.20103,0.18065,-0.61387,-0.38693,54.51167,0.00700,-0.88897,0.00303,0.00149,-0.45796,1,0,
06.23 16:36:07:992,25020,0.08117,-0.08866,9.76586,0.00000,0.00000,0.00161,0.20054,0.18017,-0.61487,-0.38562,54.51154,0.00751,-0.88897,0.00302,0.00148,-0.45796,1,0,
06.23 16:36:08:001,25021,0.00172,-0.14274,9.74252,0.00000,0.00000,0.00161,0.20153,0.18017,-0.61486,-0.38743,54.51249,0.00800,-0.88896,0.00304,0.00149,-0.45797,1,0,
06.23 16:36:08:012,25022,-0.04740,-0.06569,9.80029,0.00000,0.00000,0.00161,0.20301,0.18163,-0.61285,-0.38718,54.51300,0.01028,-0.88896,0.00304,0.00147,-0.45797,1,0,
06.23 16:36:08:021,25023,0.01263,-0.04311,9.85916,0.00000,0.00000,0.00161,0.20154,0.18119,-0.61585,-0.38624,54.51199,0.00843,-0.88896,0.00303,0.00148,-0.45796,1,0,
06.23 16:36:08:032,25024,0.03184,0.01931,9.72066,0.00000,0.00000,0.00161,0.20004,0.18165,-0.61387,-0.38628,54.51164,0.00715,-0.88897,0.00303,0.00149,-0.45796,1,0,
06.23 16:36:08:041,25025,0.00867,-0.04132,9.75945,0.00000,0.00000,0.00161,0.20252,0.18064,-0.61336,-0.38680,54.51154,0.00782,-0.88897,0.00303,0.00149,-0.45796,1,0,
06.23 16:36:08:051,25026,-0.00113,-0.07583,9.82578,0.00000,0.00000,0.00161,0.20152,0.18063,-0.61287,-0.38639,54.51306,0.00808,-0.88896,0.00303,0.00148,-0.45797,1,0,
06.23 16:36:08:061,25027,-0.04877,-0.12352,9.91094,0.00000,0.00000,0.00161,0.20252,0.17965,-0.61386,-0.38789,54.51456,0.00805,-0.88895,0.00304,0.00149,-0.45798,1,0,
06.23 16:36:08:071,25028,-0.02435,-0.00746,9.75227,0.00000,0.00000,0.00161,0.20152,0.18163,-0.61287,-0.38611,54.51449,0.00835,-0.88895,0.00303,0.00148,-0.45798,1,0,
06.23 16:36:08:081,25029,-0.00079,-0.03971,9.86383,0.00000,0.00000,0.00161,0.20303,0.18219,-0.61584,-0.38444,54.51323,0.00806,-0.88896,0.00301,0.00147,-0.45797,1,0,
06.23 16:36:08:091,25030,0.04276,0.02347,9.76815,0.00000,0.00000,0.00161,0.20003,0.17712,-0.61240,-0.38378,54.51183,0.00668,-0.88896,0.00300,0.00148,-0.45796,1,0,
06.23 16:36:08:101,25031,0.00880,-0.04667,9.79047,0.00000,0.00000,0.00161,0.20053,0.18114,-0.61337,-0.38354,54.51176,0.00807,-0.88897,0.00301,0.00147,-0.45796,1,0,
06.23 16:36:08:112,25032,-0.02219,-0.02837,9.69713,0.00000,0.00000,0.00161,0.20054,0.17868,-0.61537,-0.38428,54.51256,0.00930,-0.88896,0.00302,0.00146,-0.45797,1,0,
06.23 16:36:08:121,25033,-0.04765,-0.14162,9.98106,0.00000,0.00000,0.00161,0.20250,0.18009,-0.61087,-0.38486,54.51230,0.00889,-0.88896,0.00302,0.00147,-0.45797,1,0,
06.23 16:36:08:131,25034,-0.01227,-0.06339,9.78279,0.00000,0.00000,0.00161,0.20152,0.17862,-0.61238,-0.38455,54.51167,0.00945,-0.88897,0.00302,0.00146,-0.45796,1,0,
06.23 16:36:08:141,25035,-0.00669,-0.06869,9.75175,0.00000,0.00000,0.00161,0.20153,0.17866,-0.61437,-0.38414,54.51231,0.00989,-0.88896,0.00302,0.00146,-0.45797,1,0,
06.23 16:36:08:151,25036,-0.01885,-0.05993,9.82363,0.00000,0.00000,0.00161,0.20400,0.18064,-0.61285,-0.38296,54.51218,0.00980,-0.88896,0.00301,0.00145,-0.45797,1,0,
06.23 16:36:08:162,25037,-0.05126,-0.04747,9.89020,0.00000,0.00000,0.00161,0.20151,0.17960,-0.61138,-0.38433,54.51250,0.00987,-0.88896,0.00302,0.00146,-0.45797,1,0,
06.23 16:36:08:171,25038,-0.01292,-0.06603,9.70826,0.00000,0.00000,0.00161,0.20401,0.18118,-0.61484,-0.38457,54.51311,0.00968,-0.88896,0.00302,0.00146,-0.45797,1,0,
06.23 16:36:08:182,25039,0.01076,-0.03681,9.84690,0.00000,0.00000,0.00161,0.20252,0.18015,-0.61386,-0.38235,54.51279,0.00923,-0.88896,0.00300,0.00146,-0.45797,1,0,
06.23 16:36:08:191,25040,0.01961,-0.03478,9.83284,0.00000,0.00000,0.00161,0.20054,0.17915,-0.61388,-0.38256,54.51177,0.00911,-0.88897,0.00300,0.00146,-0.45796,1,0,
06.23 16:36:08:201,25041,0.03288,-0.04421,9.71091,0.00000,0.00000,0.00161,0.20301,0.17964,-0.61286,-0.38247,54.51256,0.00873,-0.88896,0.00300,0.00146,-0.45797,1,0,
06.23 16:36:08:211,25042,-0.02968,-0.11187,9.76801,0.00000,0.00000,0.00161,0.20202,0.18062,-0.61237,-0.38164,54.51384,0.00945,-0.88896,0.00300,0.00145,-0.45798,1,0,
06.23 16:36:08:221,25043,-0.03277,-0.08617,9.85155,0.00000,0.00000,0.00161,0.20302,0.18217,-0.61484,-0.38275,54.51289,0.00989,-0.88896,0.00301,0.00145,-0.45797,1,0,
06.23 16:36:08:232,25044,0.03457,-0.06734,9.74355,0.00000,0.00000,0.00161,0.20153,0.18015,-0.61387,-0.38285,54.51318,0.00843,-0.88896,0.00300,0.00146,-0.45797,1,0,
06.23 16:36:08:242,25045,0.00758,-0.03591,9.76722,0.00000,0.00000,0.00161,0.20352,0.18117,-0.61434,-0.38147,54.51405,0.00846,-0.88896,0.00299,0.00146,-0.45798,1,0,
06.23 16:36:08:252,25046,-0.00551,-0.03727,9.86600,0.00000,0.00000,0.00161,0.20302,0.18316,-0.61434,-0.38242,54.51409,0.00813,-0.88896,0.00300,0.00147,-0.45798,1,0,
06.23 16:36:08:261,25047,0.01244,-0.04628,9.75232,0.00000,0.00000,0.00161,0.20054,0.18115,-0.61387,-0.38239,54.51453,0.00734,-0.88895,0.00300,0.00147,-0.45798,1,0,
06.23 16:36:08:272,25048,-0.02071,-0.05977,9.80527,0.00000,0.00000,0.00161,0.20105,0.17971,-0.61686,-0.38242,54.51604,0.00841,-0.88895,0.00300,0.00146,-0.45800,1,0,
06.23 16:36:08:281,25049,0.00158,-0.05696,9.79321,0.00000,0.00000,0.00161,0.20104,0.18067,-0.61486,-0.38254,54.51627,0.00758,-0.88895,0.00300,0.00147,-0.45800,1,0,
06.23 16:36:08:291,25050,-0.00724,-0.06508,9.82697,0.00000,0.00000,0.00161,0.20351,0.18015,-0.61335,-0.38081,54.51530,0.00788,-0.88895,0.00299,0.00146,-0.45799,1,0,
06.23 16:36:08:302,25051,-0.02783,-0.06090,9.77984,0.00000,0.00000,0.00161,0.20251,0.18063,-0.61286,-0.38128,54.51569,0.00946,-0.88895,0.00300,0.00145,-0.45799,1,0,
06.23 16:36:08:311,25052,-0.03084,-0.05159,9.82132,0.00000,0.00000,0.00161,0.20153,0.17916,-0.61437,-0.38106,54.51584,0.00959,-0.88895,0.00299,0.00145,-0.45799,1,0,
06.23 16:36:08:323,25053,-0.00842,-0.04578,9.84859,0.00000,0.00000,0.00161,0.20054,0.17917,-0.61487,-0.38132,54.51525,0.00825,-0.88895,0.00299,0.00146,-0.45799,1,0,
06.23 16:36:08:332,25054,0.02407,-0.04163,9.77340,0.00000,0.00000,0.00161,0.20351,0.17916,-0.61385,-0.38253,54.51719,0.00878,-0.88894,0.00300,0.00146,-0.45800,1,0,
06.23 16:36:08:345,25055,0.01411,-0.04184,9.77709,0.00000,0.00000,0.00161,0.20154,0.18121,-0.61685,-0.38283,54.51665,0.00954,-0.88895,0.00301,0.00146,-0.45800,1,0,
06.23 16:36:08:358,25056,-0.00256,-0.05127,9.80210,0.00000,0.00000,0.00161,0.20004,0.18164,-0.61338,-0.38306,54.51633,0.00965,-0.88895,0.00301,0.00146,-0.45800,1,0,
06.23 16:36:08:367,25057,-0.01356,-0.08088,9.81093,0.00000,0.00000,0.00161,0.20102,0.18110,-0.61138,-0.38188,54.51567,0.01050,-0.88895,0.00300,0.00144,-0.45799,1,0,
06.23 16:36:08:373,25058,-0.03732,-0.05462,9.78670,0.00000,0.00000,0.00161,0.20104,0.18118,-0.61536,-0.37983,54.51432,0.01051,-0.88895,0.00299,0.00144,-0.45798,1,0,
06.23 16:36:08:384,25059,0.00727,-0.02984,9.81929,0.00000,0.00000,0.00161,0.20302,0.17916,-0.61386,-0.38179,54.51545,0.00980,-0.88895,0.00300,0.00145,-0.45799,1,0,
06.23 16:36:08:394,25060,-0.00367,-0.02140,9.83775,0.00000,0.00000,0.00161,0.20351,0.18016,-0.61385,-0.38096,54.51558,0.00879,-0.88895,0.00299,0.00145,-0.45799,1,0,
06.23 16:36:08:403,25061,-0.03081,-0.06153,9.77666,0.00000,0.00000,0.00161,0.20104,0.18020,-0.61636,-0.38152,54.51555,0.00842,-0.88895,0.00299,0.00146,-0.45799,1,0,
06.23 16:36:08:412,25062,-0.01361,-0.08535,9.76043,0.00000,0.00000,0.00161,0.20400,0.18114,-0.61285,-0.38213,54.51532,0.00844,-0.88895,0.00300,0.00146,-0.45799,1,0,
06.23 16:36:08:422,25063,0.01760,-0.06546,9.81936,0.00000,0.00000,0.00161,0.20204,0.18070,-0.61635,-0.38269,54.51491,0.00778,-0.88895,0.00300,0.00147,-0.45799,1,0,
06.23 16:36:08:433,25064,0.00487,-0.04044,9.79486,0.00000,0.00000,0.00161,0.20154,0.17920,-0.61636,-0.38301,54.51434,0.00722,-0.88895,0.00300,0.00147,-0.45798,1,0,
06.23 16:36:08:441,25065,0.00197,-0.05072,9.77480,0.00000,0.00000,0.00161,0.20054,0.18168,-0.61536,-0.38310,54.51466,0.00723,-0.88895,0.00300,0.00148,-0.45799,1,0,
06.23 16:36:08:451,25066,-0.01633,-0.05444,9.81925,0.00000,0.00000,0.00161,0.19905,0.18066,-0.61488,-0.38245,54.51475,0.00763,-0.88895,0.00300,0.00147,-0.45799,1,0,
06.23 16:36:08:463,25067,0.00063,-0.06915,9.84175,0.00000,0.00000,0.00161,0.20251,0.18111,-0.61186,-0.38336,54.51369,0.00788,-0.88896,0.00301,0.00147,-0.45798,1,0,
06.23 16:36:08:472,25068,0.00748,-0.06373,9.74462,0.00000,0.00000,0.00161,0.20351,0.18065,-0.61335,-0.38300,54.51390,0.00825,-0.88896,0.00300,0.00147,-0.45798,1,0,
06.23 16:36:08:482,25069,-0.03340,-0.06236,9.82614,0.00000,0.00000,0.00161,0.20154,0.18118,-0.61536,-0.38315,54.51408,0.00865,-0.88896,0.00301,0.00146,-0.45798,1,0,
06.23 16:36:08:491,25070,0.00128,-0.06131,9.81190,0.00000,0.00000,0.00161,0.20154,0.18071,-0.61685,-0.38458,54.51407,0.00894,-0.88896,0.00302,0.00147,-0.45798,1,0,
06.23 16:36:08:501,25071,-0.01747,-0.05686,9.79564,0.00000,0.00000,0.00161,0.20153,0.18215,-0.61386,-0.38492,54.51377,0.00996,-0.88896,0.00303,0.00146,-0.45798,1,0,
06.23 16:36:08:512,25072,-0.00606,-0.04797,9.78165,0.00000,0.00000,0.00161,0.20052,0.18061,-0.61188,-0.38427,54.51386,0.01062,-0.88896,0.00302,0.00145,-0.45798,1,0,
06.23 16:36:08:521,25073,0.01038,-0.05555,9.81817,0.00000,0.00000,0.00161,0.20104,0.18020,-0.61636,-0.38522,54.51500,0.00936,-0.88895,0.00303,0.00147,-0.45799,1,0,
06.23 16:36:08:532,25074,-0.02083,-0.06896,9.79891,0.00000,0.00000,0.00161,0.20401,0.18067,-0.61434,-0.38515,54.51339,0.00873,-0.88896,0.00302,0.00147,-0.45798,1,0,
06.23 16:36:08:542,25075,-0.01997,-0.07028,9.78050,0.00000,0.00000,0.00161,0.20004,0.18166,-0.61437,-0.38708,54.51398,0.00877,-0.88896,0.00304,0.00148,-0.45798,1,0,
06.23 16:36:08:552,25076,0.01505,-0.06772,9.81653,0.00000,0.00000,0.00161,0.20153,0.17967,-0.61486,-0.38635,54.51517,0.00865,-0.88895,0.00303,0.00148,-0.45799,1,0,
06.23 16:36:08:562,25077,0.01851,-0.05333,9.79910,0.00000,0.00000,0.00161,0.20204,0.18321,-0.61684,-0.38512,54.51385,0.00819,-0.88896,0.00302,0.00148,-0.45798,1,0,
06.23 16:36:08:572,25078,0.02559,-0.03665,9.76572,0.00000,0.00000,0.00161,0.20054,0.18067,-0.61487,-0.38571,54.51268,0.00799,-0.88896,0.00302,0.00148,-0.45797,1,0,
06.23 16:36:08:581,25079,-0.00106,-0.02970,9.79741,0.00000,0.00000,0.00161,0.20451,0.18069,-0.61533,-0.38726,54.51289,0.00824,-0.88896,0.00304,0.00148,-0.45797,1,0,
06.23 16:36:08:593,25080,0.00078,-0.05655,9.81436,0.00000,0.00000,0.00161,0.20104,0.18369,-0.61585,-0.38853,54.51280,0.00838,-0.88896,0.00305,0.00149,-0.45797,1,0,
06.23 16:36:08:603,25081,-0.02460,-0.06136,9.79912,0.00000,0.00000,0.00161,0.20401,0.18116,-0.61384,-0.39107,54.51480,0.00862,-0.88895,0.00307,0.00150,-0.45799,1,0,
06.23 16:36:08:612,25082,0.00392,-0.06527,9.78265,0.00000,0.00000,0.00161,0.20351,0.18414,-0.61334,-0.39245,54.51448,0.00897,-0.88895,0.00308,0.00150,-0.45798,1,0,
06.23 16:36:08:622,25083,-0.01314,-0.06584,9.80959,0.00000,0.00000,0.00161,0.19954,0.18113,-0.61338,-0.39271,54.51470,0.00807,-0.88895,0.00308,0.00151,-0.45799,1,0,
06.23 16:36:08:632,25084,-0.01134,-0.07595,9.79004,0.00000,0.00000,0.00161,0.20301,0.18214,-0.61335,-0.39401,54.51484,0.00763,-0.88895,0.00309,0.00152,-0.45799,1,0,
06.23 16:36:08:642,25085,0.00280,-0.04551,9.78928,0.00000,0.00000,0.00161,0.20353,0.18072,-0.61683,-0.39373,54.51452,0.00798,-0.88895,0.00309,0.00151,-0.45798,1,0,
06.23 16:36:08:652,25086,0.01318,-0.03043,9.80411,0.00000,0.00000,0.00161,0.20302,0.18069,-0.61535,-0.39348,54.51447,0.00803,-0.88895,0.00308,0.00151,-0.45798,1,0,
06.23 16:36:08:661,25087,-0.00067,-0.04815,9.79741,0.00000,0.00000,0.00161,0.20451,0.18117,-0.61434,-0.39447,54.51418,0.00902,-0.88896,0.00310,0.00151,-0.45798,1,0,
06.23 16:36:08:671,25088,-0.01108,-0.06048,9.79013,0.00000,0.00000,0.00161,0.20253,0.18368,-0.61534,-0.39359,54.51449,0.01000,-0.88895,0.00309,0.00150,-0.45798,1,0,
06.23 16:36:08:682,25089,-0.02705,-0.07182,9.81457,0.00000,0.00000,0.00161,0.20203,0.18318,-0.61534,-0.39536,54.51495,0.00979,-0.88895,0.00311,0.00150,-0.45799,1,0,
06.23 16:36:08:691,25090,-0.00718,-0.07606,9.81131,0.00000,0.00000,0.00161,0.20203,0.18016,-0.61436,-0.39506,54.51487,0.00879,-0.88895,0.00310,0.00151,-0.45799,1,0,
06.23 16:36:08:701,25091,-0.00673,-0.04894,9.78701,0.00000,0.00000,0.00161,0.20302,0.18265,-0.61385,-0.39580,54.51593,0.00787,-0.88895,0.00310,0.00152,-0.45800,1,0,
06.23 16:36:08:713,25092,0.00113,-0.03773,9.79035,0.00000,0.00000,0.00161,0.20252,0.18266,-0.61435,-0.39623,54.51598,0.00709,-0.88895,0.00310,0.00153,-0.45800,1,0,
06.23 16:36:08:721,25093,0.00507,-0.04528,9.79781,0.00000,0.00000,0.00161,0.20154,0.18119,-0.61585,-0.39496,54.51508,0.00748,-0.88895,0.00309,0.00152,-0.45799,1,0,
06.23 16:36:08:731,25094,-0.01345,-0.05346,9.81891,0.00000,0.00000,0.00161,0.20253,0.18218,-0.61534,-0.39452,54.51506,0.00669,-0.88895,0.00309,0.00152,-0.45799,1,0,
06.23 16:36:08:741,25095,-0.01599,-0.05851,9.79662,0.00000,0.00000,0.00161,0.20153,0.18067,-0.61486,-0.39620,54.51553,0.00711,-0.88895,0.00310,0.00153,-0.45799,1,0,
06.23 16:36:08:752,25096,-0.00938,-0.06484,9.79626,0.00000,0.00000,0.00161,0.20202,0.18163,-0.61286,-0.39642,54.51635,0.00780,-0.88895,0.00311,0.00152,-0.45800,1,0,
06.23 16:36:08:762,25097,-0.01562,-0.07343,9.80542,0.00000,0.00000,0.00161,0.20103,0.18114,-0.61337,-0.39717,54.51628,0.00736,-0.88895,0.00311,0.00153,-0.45800,1,0,
06.23 16:36:08:772,25098,-0.01788,-0.06359,9.78899,0.00000,0.00000,0.00161,0.20203,0.18167,-0.61485,-0.39843,54.51695,0.00692,-0.88894,0.00312,0.00154,-0.45800,1,0,
06.23 16:36:08:782,25099,-0.00892,-0.05793,9.79903,0.00000,0.00000,0.00161,0.20449,0.18212,-0.61184,-0.39683,54.51614,0.00596,-0.88895,0.00310,0.00154,-0.45800,1,0,
06.23 16:36:08:792,25100,-0.00245,-0.04921,9.79536,0.00000,0.00000,0.00161,0.20453,0.18026,-0.61882,-0.39794,54.51556,0.00579,-0.88895,0.00311,0.00155,-0.45799,1,0,
06.23 16:36:08:801,25101,0.01505,-0.04783,9.79171,0.00000,0.00000,0.00161,0.20203,0.18117,-0.61485,-0.39839,54.51598,0.00529,-0.88895,0.00311,0.00155,-0.45800,1,0,
06.23 16:36:08:811,25102,-0.00449,-0.05099,9.79381,0.00000,0.00000,0.00161,0.20252,0.18016,-0.61436,-0.39824,54.51498,0.00561,-0.88895,0.00311,0.00155,-0.45799,1,0,
06.23 16:36:08:821,25103,-0.00927,-0.06345,9.80999,0.00000,0.00000,0.00161,0.20103,0.18115,-0.61387,-0.39886,54.51608,0.00645,-0.88895,0.00312,0.00154,-0.45800,1,0,
06.23 16:36:08:831,25104,-0.03382,-0.05846,9.81913,0.00000,0.00000,0.00161,0.20253,0.18019,-0.61585,-0.39904,54.51555,0.00625,-0.88895,0.00312,0.00155,-0.45799,1,0,
06.23 16:36:08:842,25105,0.00410,-0.06184,9.75401,0.00000,0.00000,0.00161,0.20005,0.18219,-0.61636,-0.39983,54.51525,0.00694,-0.88895,0.00313,0.00154,-0.45799,1,0,
06.23 16:36:08:852,25106,0.00172,-0.06480,9.81557,0.00000,0.00000,0.00161,0.20253,0.18468,-0.61534,-0.40209,54.51553,0.00675,-0.88895,0.00315,0.00155,-0.45799,1,0,
06.23 16:36:08:861,25107,-0.02417,-0.05755,9.80182,0.00000,0.00000,0.00161,0.20104,0.18217,-0.61486,-0.40143,54.51493,0.00664,-0.88895,0.00314,0.00155,-0.45799,1,0,
06.23 16:36:08:871,25108,-0.02553,-0.04336,9.81896,0.00000,0.00000,0.00161,0.20252,0.18116,-0.61435,-0.40245,54.51508,0.00693,-0.88895,0.00315,0.00155,-0.45799,1,0,
06.23 16:36:08:880,25109,0.00350,-0.04571,9.79383,0.00000,0.00000,0.00161,0.20253,0.17868,-0.61486,-0.40143,54.51463,0.00575,-0.88895,0.00314,0.00156,-0.45798,1,0,
06.23 16:36:08:891,25110,-0.02260,-0.07248,9.83663,0.00000,0.00000,0.00161,0.20005,0.18118,-0.61537,-0.39948,54.51467,0.00512,-0.88895,0.00312,0.00156,-0.45799,1,0,
06.23 16:36:08:901,25111,-0.01950,-0.07534,9.74581,0.00000,0.00000,0.00161,0.20154,0.17968,-0.61536,-0.40116,54.51462,0.00425,-0.88895,0.00313,0.00157,-0.45798,1,0,
06.23 16:36:08:911,25112,0.02735,-0.06102,9.84848,0.00000,0.00000,0.00161,0.20352,0.18269,-0.61583,-0.40089,54.51380,0.00344,-0.88896,0.00312,0.00158,-0.45798,1,0,
06.23 16:36:08:922,25113,0.00511,-0.04623,9.76222,0.00000,0.00000,0.00161,0.20054,0.18417,-0.61535,-0.39841,54.51350,0.00364,-0.88896,0.00311,0.00156,-0.45798,1,0,
06.23 16:36:08:932,25114,-0.00321,-0.03457,9.80971,0.00000,0.00000,0.00161,0.20152,0.18163,-0.61287,-0.39817,54.51220,0.00404,-0.88896,0.00311,0.00156,-0.45797,1,0,
06.23 16:36:08:940,25115,-0.01320,-0.05718,9.76775,0.00000,0.00000,0.00161,0.20054,0.18118,-0.61536,-0.39749,54.51267,0.00428,-0.88896,0.00310,0.00156,-0.45797,1,0,
06.23 16:36:08:951,25116,-0.01683,-0.05220,9.81748,0.00000,0.00000,0.00161,0.20203,0.18067,-0.61486,-0.39885,54.51258,0.00508,-0.88896,0.00311,0.00155,-0.45797,1,0,
06.23 16:36:08:960,25117,0.01279,-0.07406,9.77681,0.00000,0.00000,0.00161,0.20452,0.17922,-0.61683,-0.39902,54.51306,0.00453,-0.88896,0.00311,0.00156,-0.45797,1,0,
06.23 16:36:08:970,25118,-0.00141,-0.04906,9.81274,0.00000,0.00000,0.00161,0.20252,0.18366,-0.61434,-0.39839,54.51416,0.00434,-0.88896,0.00311,0.00156,-0.45798,1,0,
06.23 16:36:08:980,25119,-0.00218,-0.04171,9.77483,0.00000,0.00000,0.00161,0.20202,0.17964,-0.61337,-0.39908,54.51488,0.00535,-0.88895,0.00312,0.00155,-0.45799,1,0,
06.23 16:36:08:994,25120,0.01535,-0.04278,9.78894,0.00000,0.00000,0.00161,0.20055,0.18020,-0.61636,-0.39859,54.51493,0.00636,-0.88895,0.00312,0.00154,-0.45799,1,0,
06.23 16:36:09:003,25121,-0.00307,-0.04978,9.81143,0.00000,0.00000,0.00161,0.20004,0.18213,-0.61337,-0.38895,54.50640,0.00600,-0.88899,0.00304,0.00151,-0.45792,1,0,
06.23 16:36:09:014,25122,-0.03200,-0.06278,9.81004,0.00000,0.00000,0.00161,0.20352,0.18218,-0.61534,-0.39125,54.50614,0.00705,-0.88899,0.00306,0.00151,-0.45792,1,0,
06.23 16:36:09:026,25123,-0.01190,-0.07309,9.79395,0.00000,0.00000,0.00161,0.20104,0.17866,-0.61437,-0.39028,54.50644,0.00742,-0.88899,0.00306,0.00150,-0.45792,1,0,
06.23 16:36:09:032,25124,-0.01857,-0.08275,9.81376,0.00000,0.00000,0.00161,0.20251,0.17912,-0.61237,-0.38945,54.50574,0.00750,-0.88899,0.00305,0.00150,-0.45792,1,0,
06.23 16:36:09:042,25125,0.00152,-0.07385,9.80175,0.00000,0.00000,0.00161,0.20452,0.18424,-0.61781,-0.38894,54.50644,0.00733,-0.88899,0.00305,0.00150,-0.45792,1,0,
06.23 16:36:09:051,25126,0.01018,-0.05070,9.79578,0.00000,0.00000,0.00161,0.20154,0.18171,-0.61685,-0.38831,54.50588,0.00688,-0.88899,0.00304,0.00150,-0.45792,1,0,
06.23 16:36:09:061,25127,0.02037,-0.02974,9.77845,0.00000,0.00000,0.00161,0.20203,0.18319,-0.61584,-0.38920,54.50580,0.00653,-0.88899,0.00305,0.00150,-0.45792,1,0,
06.23 16:36:09:072,25128,-0.00025,-0.04362,9.79593,0.00000,0.00000,0.00161,0.19954,0.18013,-0.61289,-0.39020,54.50613,0.00611,-0.88899,0.00305,0.00151,-0.45792,1,0,
06.23 16:36:09:082,25129,-0.01062,-0.05331,9.79128,0.00000,0.00000,0.00161,0.20253,0.18017,-0.61485,-0.38802,54.50463,0.00658,-0.88899,0.00304,0.00150,-0.45791,1,0,
06.23 16:36:09:091,25130,0.00025,-0.05892,9.80031,0.00000,0.00000,0.00161,0.20004,0.17965,-0.61388,-0.38676,54.50468,0.00696,-0.88899,0.00303,0.00149,-0.45791,1,0,
06.23 16:36:09:101,25131,-0.02639,-0.07228,9.80513,0.00000,0.00000,0.00161,0.20303,0.18120,-0.61634,-0.38618,54.50507,0.00805,-0.88899,0.00303,0.00148,-0.45791,1,0,
06.23 16:36:09:111,25132,-0.02859,-0.04903,9.80878,0.00000,0.00000,0.00161,0.20501,0.18118,-0.61483,-0.38670,54.50607,0.00821,-0.88899,0.00303,0.00148,-0.45792,1,0,
06.23 16:36:09:121,25133,-0.02008,-0.04963,9.78558,0.00000,0.00000,0.00161,0.20303,0.18171,-0.61684,-0.38725,54.50602,0.00875,-0.88899,0.00304,0.00148,-0.45792,1,0,
06.23 16:36:09:131,25134,0.00319,-0.06549,9.79378,0.00000,0.00000,0.00161,0.20204,0.17819,-0.61586,-0.38805,54.50591,0.00884,-0.88899,0.00305,0.00148,-0.45792,1,0,
06.23 16:36:09:141,25135,0.02375,-0.06674,9.81135,0.00000,0.00000,0.00161,0.20203,0.18019,-0.61585,-0.38941,54.50686,0.00856,-0.88898,0.00306,0.00149,-0.45792,1,0,
06.23 16:36:09:152,25136,-0.01584,-0.04727,9.79676,0.00000,0.00000,0.00161,0.20004,0.18015,-0.61388,-0.38954,54.50709,0.00858,-0.88898,0.00306,0.00149,-0.45793,1,0,
06.23 16:36:09:162,25137,-0.01135,-0.05718,9.79872,0.00000,0.00000,0.00161,0.20054,0.18167,-0.61486,-0.38901,54.50761,0.00851,-0.88898,0.00305,0.00149,-0.45793,1,0,
06.23 16:36:09:171,25138,-0.01375,-0.05758,9.81059,0.00000,0.00000,0.00161,0.20103,0.18115,-0.61387,-0.39057,54.50696,0.00883,-0.88898,0.00307,0.00149,-0.45793,1,0,
06.23 16:36:09:181,25139,0.00544,-0.06183,9.79452,0.00000,0.00000,0.00161,0.20152,0.18264,-0.61336,-0.38901,54.50610,0.00865,-0.88899,0.00305,0.00149,-0.45792,1,0,
06.23 16:36:09:191,25140,0.01551,-0.06058,9.79180,0.00000,0.00000,0.00161,0.20204,0.18270,-0.61634,-0.38835,54.50653,0.00736,-0.88899,0.00304,0.00149,-0.45792,1,0,
06.23 16:36:09:201,25141,0.00359,-0.04225,9.79886,0.00000,0.00000,0.00161,0.20254,0.17922,-0.61685,-0.38905,54.50711,0.00774,-0.88898,0.00305,0.00149,-0.45793,1,0,
06.23 16:36:09:210,25142,-0.00792,-0.04677,9.78382,0.00000,0.00000,0.00161,0.20353,0.18270,-0.61633,-0.38937,54.50698,0.00710,-0.88898,0.00305,0.00150,-0.45793,1,0,
06.23 16:36:09:222,25143,-0.01092,-0.06171,9.78639,0.00000,0.00000,0.00161,0.20005,0.18070,-0.61636,-0.39006,54.50697,0.00763,-0.88898,0.00306,0.00150,-0.45793,1,0,
06.23 16:36:09:232,25144,0.00127,-0.07130,9.81107,0.00000,0.00000,0.00161,0.20352,0.18068,-0.61484,-0.39225,54.50594,0.00945,-0.88899,0.00308,0.00149,-0.45792,1,0,
06.23 16:36:09:241,25145,-0.02267,-0.05325,9.78518,0.00000,0.00000,0.00161,0.20105,0.18123,-0.61785,-0.39327,54.50621,0.00916,-0.88899,0.00309,0.00150,-0.45792,1,0,
06.23 16:36:09:250,25146,-0.00124,-0.06816,9.81059,0.00000,0.00000,0.00161,0.20154,0.18169,-0.61585,-0.39369,54.50540,0.00891,-0.88899,0.00309,0.00150,-0.45791,1,0,
06.23 16:36:09:261,25147,-0.00429,-0.05317,9.79404,0.00000,0.00000,0.00161,0.20204,0.18122,-0.61734,-0.39497,54.50564,0.00902,-0.88899,0.00310,0.00151,-0.45792,1,0,
06.23 16:36:09:272,25148,-0.00497,-0.05364,9.79786,0.00000,0.00000,0.00161,0.20352,0.18069,-0.61534,-0.39494,54.50469,0.00909,-0.88899,0.00310,0.00151,-0.45791,1,0,
06.23 16:36:09:281,25149,0.00333,-0.07302,9.79071,0.00000,0.00000,0.00161,0.20452,0.17820,-0.61584,-0.39552,54.50404,0.00937,-0.88900,0.00311,0.00151,-0.45790,1,0,
06.23 16:36:09:291,25150,0.00681,-0.04898,9.80692,0.00000,0.00000,0.00161,0.20154,0.18068,-0.61536,-0.39458,54.50496,0.00906,-0.88899,0.00310,0.00151,-0.45791,1,0,
06.23 16:36:09:302,25151,0.01662,-0.04662,9.78589,0.00000,0.00000,0.00161,0.20253,0.18017,-0.61485,-0.39558,54.50565,0.00946,-0.88899,0.00311,0.00151,-0.45792,1,0,
06.23 16:36:09:311,25152,-0.01340,-0.04508,9.81517,0.00000,0.00000,0.00161,0.20203,0.18167,-0.61485,-0.39551,54.50552,0.00859,-0.88899,0.00310,0.00151,-0.45791,1,0,
06.23 16:36:09:321,25153,-0.01058,-0.05219,9.80604,0.00000,0.00000,0.00161,0.20252,0.18415,-0.61384,-0.39627,54.50486,0.00913,-0.88899,0.00311,0.00151,-0.45791,1,0,
06.23 16:36:09:331,25154,-0.00638,-0.05056,9.80835,0.00000,0.00000,0.00161,0.20202,0.18413,-0.61285,-0.39733,54.50553,0.00874,-0.88899,0.00312,0.00152,-0.45791,1,0,
06.23 16:36:09:341,25155,-0.00438,-0.06277,9.80542,0.00000,0.00000,0.00161,0.20253,0.18118,-0.61535,-0.39673,54.50654,0.00872,-0.88899,0.00311,0.00152,-0.45792,1,0,
06.23 16:36:09:351,25156,-0.00445,-0.05344,9.80768,0.00000,0.00000,0.00161,0.20301,0.17965,-0.61336,-0.39493,54.50606,0.00797,-0.88899,0.00310,0.00152,-0.45792,1,0,
06.23 16:36:09:361,25157,-0.00367,-0.04902,9.79242,0.00000,0.00000,0.00161,0.20253,0.18018,-0.61535,-0.39484,54.50519,0.00784,-0.88899,0.00309,0.00152,-0.45791,1,0,
06.23 16:36:09:371,25158,0.01438,-0.05485,9.80163,0.00000,0.00000,0.00161,0.20103,0.18216,-0.61436,-0.39366,54.50496,0.00707,-0.88899,0.00308,0.00152,-0.45791,1,0,
06.23 16:36:09:381,25159,-0.00291,-0.06413,9.80899,0.00000,0.00000,0.00161,0.20351,0.18066,-0.61385,-0.39367,54.50485,0.00731,-0.88899,0.00308,0.00152,-0.45791,1,0,
06.23 16:36:09:391,25160,-0.01878,-0.07383,9.80425,0.00000,0.00000,0.00161,0.20004,0.18366,-0.61486,-0.39487,54.50504,0.00853,-0.88899,0.00310,0.00151,-0.45791,1,0,
06.23 16:36:09:400,25161,-0.00326,-0.05061,9.80825,0.00000,0.00000,0.00161,0.20352,0.18168,-0.61484,-0.39480,54.50438,0.00894,-0.88899,0.00310,0.00151,-0.45791,1,0,
06.23 16:36:09:411,25162,0.00220,-0.04761,9.79300,0.00000,0.00000,0.00161,0.20103,0.18266,-0.61436,-0.39337,54.50410,0.00916,-0.88900,0.00309,0.00150,-0.45790,1,0,
06.23 16:36:09:421,25163,-0.00417,-0.04743,9.78558,0.00000,0.00000,0.00161,0.20055,0.18171,-0.61685,-0.39416,54.50599,0.00932,-0.88899,0.00310,0.00150,-0.45792,1,0,
06.23 16:36:09:431,25164,0.01129,-0.05138,9.78305,0.00000,0.00000,0.00161,0.20402,0.18120,-0.61583,-0.39450,54.50661,0.00842,-0.88899,0.00309,0.00151,-0.45792,1,0,
06.23 16:36:09:441,25165,0.00439,-0.06335,9.81603,0.00000,0.00000,0.00161,0.20303,0.18421,-0.61683,-0.39625,54.50790,0.00824,-0.88898,0.00311,0.00152,-0.45793,1,0,
06.23 16:36:09:452,25166,-0.00320,-0.05883,9.78231,0.00000,0.00000,0.00161,0.20303,0.18272,-0.61733,-0.39510,54.50723,0.00838,-0.88898,0.00310,0.00151,-0.45793,1,0,
06.23 16:36:09:464,25167,-0.01159,-0.05475,9.82363,0.00000,0.00000,0.00161,0.20153,0.18218,-0.61535,-0.39682,54.50759,0.00889,-0.88898,0.00311,0.00152,-0.45793,1,0,
06.23 16:36:09:470,25168,-0.01055,-0.05058,9.79662,0.00000,0.00000,0.00161,0.20254,0.18174,-0.61833,-0.39716,54.50745,0.00968,-0.88898,0.00312,0.00151,-0.45793,1,0,
06.23 16:36:09:481,25169,0.00062,-0.05016,9.80704,0.00000,0.00000,0.00161,0.20252,0.18215,-0.61385,-0.39625,54.50762,0.00998,-0.88898,0.00311,0.00151,-0.45793,1,0,
06.23 16:36:09:491,25170,-0.00410,-0.06174,9.78816,0.00000,0.00000,0.00161,0.20353,0.18173,-0.61733,-0.39706,54.50767,0.00995,-0.88898,0.00312,0.00151,-0.45793,1,0,
06.23 16:36:09:501,25171,0.00091,-0.06318,9.81839,0.00000,0.00000,0.00161,0.20451,0.18168,-0.61483,-0.39765,54.50917,0.00926,-0.88898,0.00312,0.00152,-0.45794,1,0,
06.23 16:36:09:512,25172,-0.00189,-0.05524,9.79047,0.00000,0.00000,0.00161,0.20153,0.18015,-0.61387,-0.39611,54.50887,0.00949,-0.88898,0.00311,0.00151,-0.45794,1,0,
06.23 16:36:09:524,25173,-0.03363,-0.05513,9.80377,0.00000,0.00000,0.00161,0.20352,0.18320,-0.61633,-0.39650,54.50896,0.00961,-0.88898,0.00311,0.00151,-0.45794,1,0,
06.23 16:36:09:532,25174,0.00234,-0.04843,9.80473,0.00000,0.00000,0.00161,0.20401,0.18366,-0.61433,-0.39623,54.50908,0.00928,-0.88898,0.00311,0.00151,-0.45794,1,0,
06.23 16:36:09:542,25175,-0.00265,-0.05329,9.79645,0.00000,0.00000,0.00161,0.20452,0.17972,-0.61683,-0.39565,54.50929,0.01045,-0.88897,0.00311,0.00150,-0.45794,1,0,
06.23 16:36:09:552,25176,0.00104,-0.05699,9.78904,0.00000,0.00000,0.00161,0.20352,0.18117,-0.61434,-0.39638,54.50927,0.01106,-0.88897,0.00312,0.00150,-0.45794,1,0,
06.23 16:36:09:561,25177,0.00096,-0.04803,9.79619,0.00000,0.00000,0.00161,0.20253,0.18118,-0.61535,-0.39649,54.50883,0.01145,-0.88898,0.00312,0.00150,-0.45794,1,0,
06.23 16:36:09:571,25178,0.01975,-0.05026,9.78251,0.00000,0.00000,0.00161,0.20253,0.18218,-0.61534,-0.39628,54.50831,0.01154,-0.88898,0.00312,0.00149,-0.45794,1,0,
06.23 16:36:09:583,25179,0.00247,-0.05399,9.80296,0.00000,0.00000,0.00161,0.20253,0.18370,-0.61633,-0.39596,54.50785,0.01147,-0.88898,0.00312,0.00149,-0.45793,1,0,
06.23 16:36:09:591,25180,-0.00881,-0.06348,9.80051,0.00000,0.00000,0.00161,0.19907,0.18072,-0.61787,-0.39415,54.50643,0.01088,-0.88899,0.00310,0.00149,-0.45792,1,0,
06.23 16:36:09:601,25181,-0.01547,-0.05392,9.80337,0.00000,0.00000,0.00161,0.20352,0.18419,-0.61583,-0.39589,54.50764,0.00953,-0.88898,0.00311,0.00151,-0.45793,1,0,
06.23 16:36:09:611,25182,-0.01659,-0.07505,9.79097,0.00000,0.00000,0.00161,0.20154,0.17968,-0.61536,-0.39655,54.50608,0.00960,-0.88899,0.00311,0.00151,-0.45792,1,0,
06.23 16:36:09:622,25183,-0.00749,-0.07291,9.80158,0.00000,0.00000,0.00161,0.20153,0.18368,-0.61535,-0.39692,54.50545,0.00893,-0.88899,0.00311,0.00152,-0.45791,1,0,
06.23 16:36:09:633,25184,0.00010,-0.07148,9.77821,0.00000,0.00000,0.00161,0.20501,0.17968,-0.61484,-0.39699,54.50517,0.00886,-0.88899,0.00312,0.00152,-0.45791,1,0,
06.23 16:36:09:641,25185,0.01182,-0.05566,9.80530,0.00000,0.00000,0.00161,0.19905,0.18214,-0.61388,-0.39707,54.50415,0.00826,-0.88900,0.00311,0.00152,-0.45790,1,0,
06.23 16:36:09:652,25186,0.00242,-0.06489,9.79984,0.00000,0.00000,0.00161,0.20252,0.17964,-0.61336,-0.39696,54.50462,0.00825,-0.88899,0.00311,0.00152,-0.45791,1,0,
06.23 16:36:09:663,25187,-0.01407,-0.07809,9.79285,0.00000,0.00000,0.00161,0.20104,0.18019,-0.61586,-0.39708,54.50478,0.00827,-0.88899,0.00311,0.00152,-0.45791,1,0,
06.23 16:36:09:673,25188,-0.02330,-0.04745,9.78296,0.00000,0.00000,0.00161,0.20204,0.18220,-0.61634,-0.39479,54.50484,0.00834,-0.88899,0.00310,0.00151,-0.45791,1,0,
06.23 16:36:09:681,25189,0.00073,-0.05663,9.80957,0.00000,0.00000,0.00161,0.20105,0.18172,-0.61735,-0.39534,54.50504,0.00869,-0.88899,0.00310,0.00151,-0.45791,1,0,
06.23 16:36:09:692,25190,0.00678,-0.04748,9.78801,0.00000,0.00000,0.00161,0.20353,0.18220,-0.61633,-0.39604,54.50487,0.00837,-0.88899,0.00311,0.00152,-0.45791,1,0,
06.23 16:36:09:702,25191,0.00496,-0.04484,9.80480,0.00000,0.00000,0.00161,0.20204,0.18172,-0.61734,-0.39539,54.50492,0.00742,-0.88899,0.00310,0.00152,-0.45791,1,0,
06.23 16:36:09:712,25192,-0.00304,-0.03100,9.78880,0.00000,0.00000,0.00161,0.20054,0.18167,-0.61486,-0.39714,54.50610,0.00798,-0.88899,0.00311,0.00153,-0.45792,1,0,
06.23 16:36:09:721,25193,-0.01813,-0.06282,9.78115,0.00000,0.00000,0.00161,0.20103,0.18266,-0.61436,-0.39702,54.50678,0.00885,-0.88898,0.00312,0.00152,-0.45792,1,0,
06.23 16:36:09:731,25194,-0.02907,-0.05828,9.79977,0.00000,0.00000,0.00161,0.20103,0.18265,-0.61386,-0.39628,54.50644,0.00942,-0.88899,0.00311,0.00151,-0.45792,1,0,
06.23 16:36:09:741,25195,-0.02567,-0.05507,9.81374,0.00000,0.00000,0.00161,0.20005,0.18018,-0.61537,-0.39683,54.50607,0.00948,-0.88899,0.00312,0.00151,-0.45792,1,0,
06.23 16:36:09:751,25196,-0.02972,-0.06607,9.80957,0.00000,0.00000,0.00161,0.20303,0.18071,-0.61634,-0.39472,54.50480,0.00994,-0.88899,0.00310,0.00150,-0.45791,1,0,
06.23 16:36:09:761,25197,-0.01001,-0.05122,9.79970,0.00000,0.00000,0.00161,0.20105,0.18121,-0.61685,-0.39521,54.50630,0.00950,-0.88899,0.00310,0.00151,-0.45792,1,0,
06.23 16:36:09:771,25198,-0.01178,-0.04464,9.77919,0.00000,0.00000,0.00161,0.20204,0.18170,-0.61635,-0.39462,54.50630,0.00899,-0.88899,0.00310,0.00151,-0.45792,1,0,
06.23 16:36:09:782,25199,-0.00392,-0.06607,9.80067,0.00000,0.00000,0.00161,0.20252,0.18416,-0.61434,-0.39349,54.50619,0.00881,-0.88899,0.00309,0.00150,-0.45792,1,0,
06.23 16:36:09:791,25200,-0.01138,-0.04170,9.78019,0.00000,0.00000,0.00161,0.20204,0.18171,-0.61684,-0.39297,54.50645,0.00923,-0.88899,0.00309,0.00150,-0.45792,1,0,
06.23 16:36:09:801,25201,-0.00755,-0.07354,9.80136,0.00000,0.00000,0.00161,0.20301,0.17963,-0.61236,-0.39321,54.50686,0.00873,-0.88898,0.00309,0.00150,-0.45792,1,0,
06.23 16:36:09:811,25202,-0.02654,-0.05926,9.80639,0.00000,0.00000,0.00161,0.20152,0.18264,-0.61336,-0.39299,54.50681,0.00823,-0.88898,0.00308,0.00151,-0.45792,1,0,
06.23 16:36:09:822,25203,0.00358,-0.05493,9.80380,0.00000,0.00000,0.00161,0.20102,0.17911,-0.61188,-0.39344,54.50705,0.00836,-0.88898,0.00309,0.00151,-0.45793,1,0,
06.23 16:36:09:831,25204,-0.00836,-0.06221,9.81607,0.00000,0.00000,0.00161,0.20203,0.18019,-0.61585,-0.39283,54.50673,0.00768,-0.88898,0.00308,0.00151,-0.45792,1,0,
06.23 16:36:09:841,25205,0.01199,-0.07858,9.80864,0.00000,0.00000,0.00161,0.20155,0.18174,-0.61834,-0.39332,54.50644,0.00637,-0.88899,0.00308,0.00152,-0.45792,1,0,
06.23 16:36:09:851,25206,0.01457,-0.06630,9.80043,0.00000,0.00000,0.00161,0.20203,0.18116,-0.61436,-0.39306,54.50635,0.00569,-0.88899,0.00307,0.00153,-0.45792,1,0,
06.23 16:36:09:861,25207,0.00928,-0.03993,9.76975,0.00000,0.00000,0.00161,0.19955,0.18018,-0.61538,-0.39285,54.50687,0.00494,-0.88898,0.00307,0.00153,-0.45792,1,0,
06.23 16:36:09:871,25208,0.00582,-0.05741,9.80894,0.00000,0.00000,0.00161,0.20204,0.18170,-0.61635,-0.39533,54.50793,0.00446,-0.88898,0.00308,0.00155,-0.45793,1,0,
06.23 16:36:09:882,25209,-0.04185,-0.05918,9.80739,0.00000,0.00000,0.00161,0.20402,0.18222,-0.61683,-0.39678,54.50854,0.00479,-0.88898,0.00310,0.00155,-0.45794,1,0,
06.23 16:36:09:892,25210,-0.04386,-0.06099,9.78334,0.00000,0.00000,0.00161,0.20153,0.18266,-0.61436,-0.39651,54.50784,0.00517,-0.88898,0.00310,0.00154,-0.45793,1,0,
06.23 16:36:09:901,25211,-0.01013,-0.06311,9.82270,0.00000,0.00000,0.00161,0.20550,0.18066,-0.61383,-0.39724,54.50823,0.00434,-0.88898,0.00310,0.00155,-0.45794,1,0,
06.23 16:36:09:910,25212,-0.01467,-0.07178,9.79693,0.00000,0.00000,0.00161,0.20203,0.18019,-0.61585,-0.39699,54.50847,0.00423,-0.88898,0.00310,0.00155,-0.45794,1,0,
06.23 16:36:09:921,25213,-0.00174,-0.04765,9.77252,0.00000,0.00000,0.00161,0.20203,0.17868,-0.61536,-0.39646,54.50852,0.00345,-0.88898,0.00309,0.00156,-0.45794,1,0,
06.23 16:36:09:931,25214,0.00003,-0.04754,9.83462,0.00000,0.00000,0.00161,0.20202,0.18162,-0.61236,-0.39605,54.50930,0.00408,-0.88897,0.00309,0.00155,-0.45794,1,0,
06.23 16:36:09:942,25215,0.02724,-0.02861,9.77635,0.00000,0.00000,0.00161,0.20153,0.17866,-0.61437,-0.39353,54.50898,0.00353,-0.88898,0.00307,0.00155,-0.45794,1,0,
06.23 16:36:09:951,25216,-0.01500,-0.05674,9.79426,0.00000,0.00000,0.00161,0.20253,0.18069,-0.61585,-0.39251,54.50752,0.00481,-0.88898,0.00306,0.00153,-0.45793,1,0,
06.23 16:36:09:962,25217,-0.02090,-0.06458,9.80575,0.00000,0.00000,0.00161,0.20353,0.18071,-0.61634,-0.39340,54.50833,0.00580,-0.88898,0.00308,0.00153,-0.45794,1,0,
06.23 16:36:09:971,25218,-0.03356,-0.06281,9.82494,0.00000,0.00000,0.00161,0.20152,0.18013,-0.61287,-0.39188,54.50879,0.00534,-0.88898,0.00306,0.00152,-0.45794,1,0,
06.23 16:36:09:981,25219,-0.00076,-0.07477,9.78129,0.00000,0.00000,0.00161,0.20353,0.18270,-0.61633,-0.39098,54.50895,0.00472,-0.88898,0.00305,0.00153,-0.45794,1,0,
06.23 16:36:09:990,25220,-0.00289,-0.05814,9.80432,0.00000,0.00000,0.00161,0.20154,0.18019,-0.61586,-0.39087,54.50943,0.00373,-0.88897,0.00305,0.00153,-0.45794,1,0,
06.23 16:36:10:001,25221,-0.00061,-0.05180,9.79815,0.00000,0.00000,0.00161,0.20154,0.18118,-0.61536,-0.39054,54.50856,0.00283,-0.88898,0.00304,0.00154,-0.45794,1,0,
06.23 16:36:10:011,25222,0.00359,-0.05076,9.79681,0.00000,0.00000,0.00161,0.20203,0.18167,-0.61485,-0.39130,54.50861,0.00217,-0.88898,0.00304,0.00155,-0.45794,1,0,
06.23 16:36:10:021,25223,-0.02780,-0.03181,9.79147,0.00000,0.00000,0.00161,0.20154,0.18118,-0.61536,-0.39110,54.50827,0.00096,-0.88898,0.00304,0.00156,-0.45794,1,0,
06.23 16:36:10:031,25224,-0.01612,-0.05970,9.79960,0.00000,0.00000,0.00161,0.20153,0.18266,-0.61436,-0.39216,54.50951,0.00064,-0.88897,0.00304,0.00156,-0.45795,1,0,
06.23 16:36:10:042,25225,-0.00544,-0.07082,9.80546,0.00000,0.00000,0.00161,0.20254,0.18223,-0.61783,-0.39403,54.50964,0.00129,-0.88897,0.00306,0.00156,-0.45795,1,0,
06.23 16:36:10:051,25226,-0.01953,-0.06858,9.78811,0.00000,0.00000,0.00161,0.20303,0.18121,-0.61684,-0.39338,54.50920,0.00110,-0.88898,0.00306,0.00156,-0.45794,1,0,
06.23 16:36:10:061,25227,-0.02691,-0.06844,9.79559,0.00000,0.00000,0.00161,0.19806,0.18217,-0.61538,-0.39341,54.50978,0.00108,-0.88897,0.00306,0.00156,-0.45795,1,0,
06.23 16:36:10:071,25228,0.00296,-0.04393,9.79760,0.00000,0.00000,0.00161,0.20253,0.18168,-0.61535,-0.39446,54.50986,0.00050,-0.88897,0.00306,0.00157,-0.45795,1,0,
06.23 16:36:10:081,25229,0.01630,-0.03851,9.77874,0.00000,0.00000,0.00161,0.20203,0.18468,-0.61534,-0.39348,54.50970,0.00079,-0.88897,0.00306,0.00157,-0.45795,1,0,
06.23 16:36:10:091,25230,0.00994,-0.04865,9.80096,0.00000,0.00000,0.00161,0.20202,0.18415,-0.61385,-0.39463,54.50770,0.00133,-0.88898,0.00307,0.00157,-0.45793,1,0,
06.23 16:36:10:102,25231,-0.01016,-0.04668,9.82280,0.00000,0.00000,0.00161,0.20104,0.18270,-0.61635,-0.39383,54.50790,0.00090,-0.88898,0.00306,0.00157,-0.45793,1,0,
06.23 16:36:10:111,25232,-0.01560,-0.07360,9.80234,0.00000,0.00000,0.00161,0.20303,0.18169,-0.61584,-0.39183,54.50788,0.00162,-0.88898,0.00305,0.00155,-0.45793,1,0,
06.23 16:36:10:121,25233,-0.01522,-0.07574,9.80213,0.00000,0.00000,0.00161,0.20153,0.18268,-0.61535,-0.39284,54.50817,0.00197,-0.88898,0.00306,0.00155,-0.45793,1,0,
06.23 16:36:10:131,25234,-0.02313,-0.06094,9.82072,0.00000,0.00000,0.00161,0.20303,0.18119,-0.61584,-0.39376,54.50806,0.00204,-0.88898,0.00306,0.00156,-0.45793,1,0,
06.23 16:36:10:141,25235,-0.01527,-0.04692,9.79495,0.00000,0.00000,0.00161,0.20103,0.18065,-0.61387,-0.39416,54.50865,0.00201,-0.88898,0.00307,0.00156,-0.45794,1,0,
06.23 16:36:10:151,25236,-0.00478,-0.04847,9.79888,0.00000,0.00000,0.00161,0.20253,0.18220,-0.61634,-0.39430,54.50838,0.00170,-0.88898,0.00307,0.00156,-0.45794,1,0,
06.23 16:36:10:161,25237,0.00624,-0.04460,9.79846,0.00000,0.00000,0.00161,0.20352,0.18020,-0.61584,-0.39321,54.50820,0.00196,-0.88898,0.00306,0.00156,-0.45793,1,0,
06.23 16:36:10:170,25238,-0.00180,-0.08481,9.79447,0.00000,0.00000,0.00161,0.20302,0.18069,-0.61535,-0.39300,54.50879,0.00160,-0.88898,0.00306,0.00156,-0.45794,1,0,
06.23 16:36:10:181,25239,0.00586,-0.04950,9.79469,0.00000,0.00000,0.00161,0.20253,0.18368,-0.61534,-0.39206,54.50926,0.00182,-0.88897,0.00305,0.00155,-0.45794,1,0,
06.23 16:36:10:192,25240,-0.01525,-0.06523,9.79898,0.00000,0.00000,0.00161,0.20104,0.18367,-0.61485,-0.39048,54.50881,0.00164,-0.88898,0.00304,0.00155,-0.45794,1,0,
06.23 16:36:10:202,25241,-0.01138,-0.03938,9.79798,0.00000,0.00000,0.00161,0.20353,0.18072,-0.61683,-0.39058,54.50965,0.00221,-0.88897,0.00304,0.00154,-0.45795,1,0,
06.23 16:36:10:212,25242,-0.00070,-0.03471,9.78520,0.00000,0.00000,0.00161,0.20303,0.17971,-0.61634,-0.39021,54.50927,0.00320,-0.88897,0.00304,0.00153,-0.45794,1,0,
06.23 16:36:10:222,25243,0.01180,-0.06316,9.80546,0.00000,0.00000,0.00161,0.20401,0.18265,-0.61334,-0.39105,54.50916,0.00163,-0.88898,0.00304,0.00155,-0.45794,1,0,
06.23 16:36:10:232,25244,-0.00659,-0.06958,9.79698,0.00000,0.00000,0.00161,0.20105,0.18321,-0.61685,-0.39162,54.51090,0.00096,-0.88897,0.00304,0.00156,-0.45796,1,0,
06.23 16:36:10:244,25245,-0.00627,-0.06393,9.79662,0.00000,0.00000,0.00161,0.20303,0.18221,-0.61683,-0.39008,54.51089,0.00105,-0.88897,0.00303,0.00155,-0.45796,1,0,
06.23 16:36:10:252,25246,-0.00922,-0.07415,9.80022,0.00000,0.00000,0.00161,0.20450,0.18314,-0.61284,-0.38993,54.51078,0.00187,-0.88897,0.00303,0.00154,-0.45795,1,0,
06.23 16:36:10:261,25247,-0.00176,-0.04161,9.80239,0.00000,0.00000,0.00161,0.20253,0.18219,-0.61584,-0.38979,54.51221,0.00147,-0.88896,0.00303,0.00155,-0.45797,1,0,
06.23 16:36:10:272,25248,-0.01234,-0.04462,9.79502,0.00000,0.00000,0.00161,0.20004,0.17915,-0.61388,-0.38821,54.51148,0.00128,-0.88897,0.00302,0.00154,-0.45796,1,0,
06.23 16:36:10:283,25249,-0.00657,-0.05610,9.79636,0.00000,0.00000,0.00161,0.20203,0.18168,-0.61535,-0.38876,54.51141,0.00066,-0.88897,0.00302,0.00155,-0.45796,1,0,
06.23 16:36:10:292,25250,0.00796,-0.07009,9.80418,0.00000,0.00000,0.00161,0.20054,0.18216,-0.61436,-0.39043,54.51241,0.00126,-0.88896,0.00303,0.00155,-0.45797,1,0,
06.23 16:36:10:302,25251,-0.01871,-0.05077,9.79948,0.00000,0.00000,0.00161,0.20203,0.18317,-0.61485,-0.38929,54.51228,0.00054,-0.88896,0.00302,0.00155,-0.45797,1,0,
06.23 16:36:10:312,25252,-0.00427,-0.06075,9.81143,0.00000,0.00000,0.00161,0.20104,0.18319,-0.61585,-0.38909,54.51261,0.00054,-0.88896,0.00302,0.00155,-0.45797,1,0,
06.23 16:36:10:320,25253,-0.00614,-0.04958,9.80639,0.00000,0.00000,0.00161,0.20353,0.18270,-0.61633,-0.38898,54.51140,0.00123,-0.88897,0.00302,0.00155,-0.45796,1,0,
06.23 16:36:10:331,25254,-0.00882,-0.04514,9.79066,0.00000,0.00000,0.00161,0.20303,0.18170,-0.61634,-0.38803,54.51044,0.00125,-0.88897,0.00302,0.00154,-0.45795,1,0,
06.23 16:36:10:342,25255,-0.00027,-0.04783,9.80864,0.00000,0.00000,0.00161,0.20204,0.18172,-0.61734,-0.38915,54.51056,0.00093,-0.88897,0.00302,0.00155,-0.45795,1,0,
06.23 16:36:10:352,25256,-0.03059,-0.07170,9.80160,0.00000,0.00000,0.00161,0.20302,0.17966,-0.61386,-0.38811,54.51032,0.00123,-0.88897,0.00302,0.00154,-0.45795,1,0,
06.23 16:36:10:362,25257,0.01069,-0.06209,9.80823,0.00000,0.00000,0.00161,0.19905,0.18217,-0.61537,-0.38678,54.51024,0.00107,-0.88897,0.00300,0.00154,-0.45795,1,0,
06.23 16:36:10:372,25258,-0.00369,-0.05841,9.79419,0.00000,0.00000,0.00161,0.20302,0.18218,-0.61534,-0.38653,54.50994,0.00066,-0.88897,0.00300,0.00154,-0.45795,1,0,
06.23 16:36:10:382,25259,0.00218,-0.04409,9.81040,0.00000,0.00000,0.00161,0.20351,0.18065,-0.61335,-0.38578,54.50937,0.00017,-0.88897,0.00299,0.00154,-0.45794,1,0,
06.23 16:36:10:391,25260,0.00033,-0.05692,9.80036,0.00000,0.00000,0.00161,0.20254,0.18023,-0.61784,-0.38622,54.51038,0.00077,-0.88897,0.00300,0.00154,-0.45795,1,0,
06.23 16:36:10:401,25261,-0.00009,-0.05739,9.80527,0.00000,0.00000,0.00161,0.20154,0.18269,-0.61585,-0.38609,54.51067,0.00054,-0.88897,0.00300,0.00154,-0.45795,1,0,
06.23 16:36:10:412,25262,0.00859,-0.06503,9.79929,0.00000,0.00000,0.00161,0.19907,0.18074,-0.61886,-0.38587,54.51071,0.00131,-0.88897,0.00300,0.00153,-0.45795,1,0,
06.23 16:36:10:422,25263,-0.01966,-0.05460,9.78653,0.00000,0.00000,0.00161,0.20452,0.18023,-0.61733,-0.38549,54.51260,0.00044,-0.88896,0.00299,0.00154,-0.45797,1,0,
06.23 16:36:10:431,25264,-0.01190,-0.05990,9.81793,0.00000,0.00000,0.00161,0.20203,0.17969,-0.61585,-0.38754,54.51215,0.00063,-0.88896,0.00301,0.00154,-0.45797,1,0,
06.23 16:36:10:442,25265,-0.00882,-0.03853,9.79903,0.00000,0.00000,0.00161,0.20300,0.18109,-0.61086,-0.38700,54.51271,0.00030,-0.88896,0.00300,0.00154,-0.45797,1,0,
06.23 16:36:10:452,25266,-0.00118,-0.03669,9.81097,0.00000,0.00000,0.00161,0.20302,0.17917,-0.61436,-0.38910,54.51333,0.00018,-0.88896,0.00302,0.00155,-0.45797,1,0,
06.23 16:36:10:463,25267,-0.00736,-0.05239,9.80144,0.00000,0.00000,0.00161,0.20103,0.18065,-0.61387,-0.38805,54.51398,0.00046,-0.88896,0.00301,0.00155,-0.45798,1,0,
06.23 16:36:10:470,25268,-0.01321,-0.04362,9.81066,0.00000,0.00000,0.00161,0.20254,0.18122,-0.61734,-0.38709,54.51328,0.00056,-0.88896,0.00301,0.00154,-0.45797,1,0,
06.23 16:36:10:481,25269,-0.00524,-0.06992,9.78355,0.00000,0.00000,0.00161,0.20254,0.17923,-0.61735,-0.38701,54.51332,0.00091,-0.88896,0.00301,0.00154,-0.45797,1,0,
06.23 16:36:10:492,25270,-0.00447,-0.06478,9.81905,0.00000,0.00000,0.00161,0.20204,0.18020,-0.61635,-0.38576,54.51313,0.00083,-0.88896,0.00300,0.00154,-0.45797,1,0,
06.23 16:36:10:501,25271,-0.00910,-0.06819,9.78980,0.00000,0.00000,0.00161,0.20401,0.18218,-0.61483,-0.38694,54.51411,-0.00061,-0.88896,0.00300,0.00155,-0.45798,1,0,
06.23 16:36:10:512,25272,-0.03103,-0.07256,9.81348,0.00000,0.00000,0.00161,0.19955,0.18216,-0.61487,-0.38875,54.51484,-0.00026,-0.88895,0.00301,0.00156,-0.45799,1,0,
06.23 16:36:10:522,25273,0.00661,-0.04228,9.78825,0.00000,0.00000,0.00161,0.20352,0.18070,-0.61584,-0.38747,54.51513,-0.00098,-0.88895,0.00300,0.00156,-0.45799,1,0,
06.23 16:36:10:531,25274,0.00783,-0.05315,9.80194,0.00000,0.00000,0.00161,0.20104,0.17967,-0.61487,-0.38686,54.51400,-0.00120,-0.88896,0.00300,0.00156,-0.45798,1,0,
06.23 16:36:10:541,25275,0.00333,-0.06026,9.79259,0.00000,0.00000,0.00161,0.20402,0.18121,-0.61633,-0.38593,54.51540,-0.00133,-0.88895,0.00299,0.00155,-0.45799,1,0,
06.23 16:36:10:550,25276,0.00006,-0.06036,9.81727,0.00000,0.00000,0.00161,0.19955,0.18118,-0.61587,-0.38625,54.51623,-0.00073,-0.88895,0.00299,0.00155,-0.45800,1,0,
06.23 16:36:10:561,25277,-0.01603,-0.04504,9.79965,0.00000,0.00000,0.00161,0.20104,0.18268,-0.61535,-0.38867,54.51483,-0.00163,-0.88895,0.00301,0.00157,-0.45799,1,0,
06.23 16:36:10:572,25278,-0.00708,-0.06603,9.79679,0.00000,0.00000,0.00161,0.20154,0.18020,-0.61635,-0.38888,54.51427,-0.00164,-0.88896,0.00301,0.00157,-0.45798,1,0,
06.23 16:36:10:582,25279,-0.01965,-0.04567,9.79025,0.00000,0.00000,0.00161,0.20202,0.17964,-0.61337,-0.38892,54.51440,-0.00257,-0.88895,0.00301,0.00157,-0.45798,1,0,
06.23 16:36:10:592,25280,-0.00109,-0.07779,9.79555,0.00000,0.00000,0.00161,0.20203,0.18066,-0.61436,-0.38814,54.51319,-0.00266,-0.88896,0.00300,0.00157,-0.45797,1,0,
06.23 16:36:10:601,25281,-0.01675,-0.06635,9.78756,0.00000,0.00000,0.00161,0.20450,0.18216,-0.61384,-0.38582,54.51305,-0.00220,-0.88896,0.00298,0.00156,-0.45797,1,0,
06.23 16:36:10:611,25282,-0.00781,-0.06475,9.78856,0.00000,0.00000,0.00161,0.20153,0.18016,-0.61436,-0.38728,54.51427,-0.00260,-0.88896,0.00299,0.00157,-0.45798,1,0,
06.23 16:36:10:621,25283,0.00803,-0.04562,9.80320,0.00000,0.00000,0.00161,0.20055,0.18071,-0.61686,-0.38722,54.51360,-0.00280,-0.88896,0.00299,0.00157,-0.45798,1,0,
06.23 16:36:10:631,25284,-0.00584,-0.04663,9.79712,0.00000,0.00000,0.00161,0.20352,0.18018,-0.61485,-0.38587,54.51376,-0.00303,-0.88896,0.00298,0.00157,-0.45798,1,0,
06.23 16:36:10:641,25285,-0.01762,-0.05354,9.79519,0.00000,0.00000,0.00161,0.20452,0.17871,-0.61634,-0.38608,54.51322,-0.00339,-0.88896,0.00298,0.00157,-0.45797,1,0,
06.23 16:36:10:653,25286,-0.00293,-0.06704,9.80957,0.00000,0.00000,0.00161,0.20154,0.18071,-0.61685,-0.38456,54.51262,-0.00286,-0.88896,0.00297,0.00156,-0.45797,1,0,
06.23 16:36:10:661,25287,0.00086,-0.07274,9.79612,0.00000,0.00000,0.00161,0.20153,0.18115,-0.61386,-0.38474,54.51205,-0.00446,-0.88896,0.00297,0.00157,-0.45796,1,0,
06.23 16:36:10:672,25288,0.00326,-0.05255,9.80692,0.00000,0.00000,0.00161,0.20253,0.18320,-0.61634,-0.38556,54.51196,-0.00407,-0.88896,0.00297,0.00157,-0.45796,1,0,
06.23 16:36:10:682,25289,-0.01632,-0.04224,9.80537,0.00000,0.00000,0.00161,0.20252,0.18165,-0.61385,-0.38503,54.51099,-0.00507,-0.88897,0.00297,0.00158,-0.45796,1,0,
06.23 16:36:10:691,25290,-0.00212,-0.05660,9.80732,0.00000,0.00000,0.00161,0.19956,0.18120,-0.61686,-0.38432,54.51125,-0.00299,-0.88897,0.00297,0.00156,-0.45796,1,0,
06.23 16:36:10:702,25291,-0.00775,-0.05632,9.80394,0.00000,0.00000,0.00161,0.20104,0.18369,-0.61585,-0.38418,54.51203,-0.00308,-0.88896,0.00297,0.00156,-0.45796,1,0,
06.23 16:36:10:711,25292,0.00012,-0.05108,9.81667,0.00000,0.00000,0.00161,0.20203,0.17967,-0.61486,-0.38412,54.51212,-0.00249,-0.88896,0.00297,0.00155,-0.45797,1,0,
06.23 16:36:10:721,25293,-0.02679,-0.08519,9.79114,0.00000,0.00000,0.00161,0.20154,0.18121,-0.61685,-0.38456,54.51231,-0.00259,-0.88896,0.00297,0.00156,-0.45797,1,0,
06.23 16:36:10:732,25294,-0.00454,-0.06036,9.79982,0.00000,0.00000,0.00161,0.20154,0.18171,-0.61685,-0.38348,54.51172,-0.00265,-0.88897,0.00296,0.00155,-0.45796,1,0,
06.23 16:36:10:742,25295,-0.00969,-0.06210,9.80132,0.00000,0.00000,0.00161,0.20351,0.18215,-0.61384,-0.38301,54.51235,-0.00242,-0.88896,0.00296,0.00155,-0.45797,1,0,
06.23 16:36:10:752,25296,-0.00264,-0.03217,9.81836,0.00000,0.00000,0.00161,0.20103,0.18116,-0.61436,-0.38321,54.51203,-0.00270,-0.88896,0.00296,0.00155,-0.45796,1,0,
06.23 16:36:10:760,25297,0.00670,-0.03662,9.79807,0.00000,0.00000,0.00161,0.20401,0.18168,-0.61484,-0.38224,54.51134,-0.00309,-0.88897,0.00295,0.00155,-0.45796,1,0,
06.23 16:36:10:771,25298,-0.00533,-0.03511,9.79826,0.00000,0.00000,0.00161,0.20353,0.18173,-0.61733,-0.38368,54.51157,-0.00314,-0.88897,0.00296,0.00156,-0.45796,1,0,
06.23 16:36:10:781,25299,0.00819,-0.07116,9.79371,0.00000,0.00000,0.00161,0.20104,0.18120,-0.61635,-0.38365,54.51152,-0.00326,-0.88897,0.00296,0.00156,-0.45796,1,0,
06.23 16:36:10:790,25300,-0.02519,-0.04708,9.80024,0.00000,0.00000,0.00161,0.20303,0.18121,-0.61684,-0.38272,54.51155,-0.00326,-0.88897,0.00296,0.00155,-0.45796,1,0,
06.23 16:36:10:802,25301,-0.03156,-0.07962,9.79884,0.00000,0.00000,0.00161,0.20053,0.18213,-0.61287,-0.38285,54.51201,-0.00367,-0.88896,0.00296,0.00156,-0.45796,1,0,
06.23 16:36:10:812,25302,-0.00961,-0.04934,9.78885,0.00000,0.00000,0.00161,0.20352,0.17869,-0.61535,-0.38035,54.51189,-0.00377,-0.88896,0.00294,0.00155,-0.45796,1,0,
06.23 16:36:10:821,25303,-0.00821,-0.06643,9.79121,0.00000,0.00000,0.00161,0.20451,0.18269,-0.61533,-0.37950,54.51279,-0.00315,-0.88896,0.00293,0.00154,-0.45797,1,0,
06.23 16:36:10:831,25304,-0.00737,-0.06095,9.79901,0.00000,0.00000,0.00161,0.20253,0.18018,-0.61535,-0.37858,54.51342,-0.00362,-0.88896,0.00292,0.00154,-0.45798,1,0,
06.23 16:36:10:841,25305,-0.00641,-0.04900,9.81145,0.00000,0.00000,0.00161,0.20402,0.18270,-0.61583,-0.37858,54.51348,-0.00360,-0.88896,0.00292,0.00154,-0.45798,1,0,
06.23 16:36:10:850,25306,-0.01923,-0.06594,9.80170,0.00000,0.00000,0.00161,0.20054,0.18366,-0.61486,-0.37832,54.51320,-0.00333,-0.88896,0.00292,0.00154,-0.45797,1,0,
06.23 16:36:10:860,25307,-0.00062,-0.05722,9.79533,0.00000,0.00000,0.00161,0.20252,0.17966,-0.61436,-0.37634,54.51318,-0.00240,-0.88896,0.00291,0.00152,-0.45797,1,0,
06.23 16:36:10:870,25308,0.02296,-0.06729,9.80134,0.00000,0.00000,0.00161,0.20104,0.18069,-0.61586,-0.37675,54.51306,-0.00200,-0.88896,0.00291,0.00152,-0.45797,1,0,
06.23 16:36:10:881,25309,0.01389,-0.04308,9.79970,0.00000,0.00000,0.00161,0.20352,0.18217,-0.61484,-0.37720,54.51332,-0.00258,-0.88896,0.00292,0.00153,-0.45797,1,0,
06.23 16:36:10:892,25310,-0.01297,-0.05234,9.77867,0.00000,0.00000,0.00161,0.20303,0.17922,-0.61684,-0.37541,54.51324,-0.00189,-0.88896,0.00290,0.00152,-0.45797,1,0,
06.23 16:36:10:901,25311,-0.00154,-0.05831,9.79753,0.00000,0.00000,0.00161,0.20103,0.18214,-0.61337,-0.37323,54.51297,-0.00295,-0.88896,0.00288,0.00151,-0.45797,1,0,
06.23 16:36:10:910,25312,0.00382,-0.04804,9.80144,0.00000,0.00000,0.00161,0.20399,0.18261,-0.61135,-0.37325,54.51235,-0.00320,-0.88896,0.00288,0.00152,-0.45797,1,0,
06.23 16:36:10:921,25313,-0.00175,-0.07031,9.78720,0.00000,0.00000,0.00161,0.20302,0.18218,-0.61534,-0.37186,54.51154,-0.00264,-0.88897,0.00287,0.00151,-0.45796,1,0,
06.23 16:36:10:931,25314,-0.00737,-0.05253,9.81150,0.00000,0.00000,0.00161,0.20302,0.18065,-0.61385,-0.37277,54.51189,-0.00282,-0.88897,0.00288,0.00151,-0.45796,1,0,
06.23 16:36:10:941,25315,-0.02868,-0.05182,9.81381,0.00000,0.00000,0.00161,0.20303,0.18121,-0.61684,-0.37226,54.51142,-0.00333,-0.88897,0.00287,0.00151,-0.45796,1,0,
06.23 16:36:10:951,25316,-0.00565,-0.02640,9.78904,0.00000,0.00000,0.00161,0.20352,0.18018,-0.61485,-0.37238,54.51086,-0.00343,-0.88897,0.00288,0.00151,-0.45796,1,0,
06.23 16:36:10:961,25317,-0.00793,-0.06270,9.78897,0.00000,0.00000,0.00161,0.20104,0.17718,-0.61537,-0.37250,54.51044,-0.00325,-0.88897,0.00288,0.00151,-0.45795,1,0,
06.23 16:36:10:972,25318,-0.03380,-0.04397,9.81700,0.00000,0.00000,0.00161,0.20253,0.18521,-0.61683,-0.37204,54.51041,-0.00349,-0.88897,0.00287,0.00151,-0.45795,1,0,
06.23 16:36:10:981,25319,0.00743,-0.05621,9.76238,0.00000,0.00000,0.00161,0.20004,0.18167,-0.61487,-0.37135,54.51068,-0.00346,-0.88897,0.00287,0.00151,-0.45795,1,0,
06.23 16:36:10:991,25320,-0.01124,-0.05273,9.82578,0.00000,0.00000,0.00161,0.20203,0.18018,-0.61536,-0.37191,54.50920,-0.00353,-0.88898,0.00287,0.00151,-0.45794,1,0,
06.23 16:36:11:000,25321,-0.00688,-0.04312,9.77743,0.00000,0.00000,0.00161,0.20253,0.18117,-0.61485,-0.37545,54.51304,0.00547,-0.88896,0.00293,0.00146,-0.45797,1,0,
06.23 16:36:11:011,25322,-0.02148,-0.04530,9.81002,0.00000,0.00000,0.00161,0.20203,0.17969,-0.61585,-0.37424,54.51265,0.00508,-0.88896,0.00292,0.00146,-0.45797,1,0,
06.23 16:36:11:021,25323,0.00934,-0.03567,9.79671,0.00000,0.00000,0.00161,0.20105,0.18224,-0.61834,-0.37411,54.51271,0.00608,-0.88896,0.00293,0.00145,-0.45797,1,0,
06.23 16:36:11:030,25324,-0.00197,-0.05510,9.82930,0.00000,0.00000,0.00161,0.20253,0.18268,-0.61534,-0.37485,54.51221,0.00667,-0.88896,0.00293,0.00145,-0.45797,1,0,
06.23 16:36:11:041,25325,-0.01859,-0.07012,9.78270,0.00000,0.00000,0.00161,0.20154,0.18220,-0.61635,-0.37517,54.51151,0.00634,-0.88897,0.00294,0.00145,-0.45796,1,0,
06.23 16:36:11:052,25326,-0.01686,-0.05398,9.80756,0.00000,0.00000,0.00161,0.20153,0.17917,-0.61487,-0.37327,54.51072,0.00677,-0.88897,0.00292,0.00144,-0.45795,1,0,
06.23 16:36:11:060,25327,-0.01530,-0.06520,9.80275,0.00000,0.00000,0.00161,0.20203,0.17967,-0.61486,-0.37180,54.51032,0.00672,-0.88897,0.00291,0.00143,-0.45795,1,0,
06.23 16:36:11:071,25328,0.00544,-0.05017,9.79414,0.00000,0.00000,0.00161,0.20153,0.18167,-0.61486,-0.37128,54.51009,0.00737,-0.88897,0.00291,0.00143,-0.45795,1,0,
06.23 16:36:11:082,25329,-0.01410,-0.03874,9.81288,0.00000,0.00000,0.00161,0.20254,0.18222,-0.61733,-0.37049,54.50976,0.00858,-0.88897,0.00291,0.00141,-0.45795,1,0,
06.23 16:36:11:092,25330,-0.01733,-0.03510,9.81061,0.00000,0.00000,0.00161,0.20452,0.18070,-0.61583,-0.37104,54.50940,0.00870,-0.88897,0.00291,0.00142,-0.45794,1,0,
06.23 16:36:11:102,25331,-0.01467,-0.04677,9.81245,0.00000,0.00000,0.00161,0.20203,0.18166,-0.61435,-0.37073,54.50927,0.00918,-0.88898,0.00291,0.00141,-0.45794,1,0,
06.23 16:36:11:111,25332,-0.01126,-0.05219,9.79474,0.00000,0.00000,0.00161,0.20153,0.18166,-0.61436,-0.36955,54.50898,0.00861,-0.88898,0.00290,0.00141,-0.45794,1,0,
06.23 16:36:11:121,25333,-0.01066,-0.05575,9.80089,0.00000,0.00000,0.00161,0.20054,0.18118,-0.61536,-0.36922,54.50967,0.00823,-0.88897,0.00290,0.00141,-0.45795,1,0,
06.23 16:36:11:132,25334,-0.00529,-0.05458,9.80900,0.00000,0.00000,0.00161,0.20103,0.17965,-0.61387,-0.36861,54.50979,0.00797,-0.88897,0.00289,0.00141,-0.45795,1,0,
06.23 16:36:11:142,25335,0.00488,-0.05999,9.79733,0.00000,0.00000,0.00161,0.20401,0.18118,-0.61484,-0.36820,54.50883,0.00771,-0.88898,0.00289,0.00141,-0.45794,1,0,
06.23 16:36:11:151,25336,-0.00431,-0.05808,9.79600,0.00000,0.00000,0.00161,0.20203,0.18017,-0.61486,-0.37038,54.50918,0.00764,-0.88898,0.00290,0.00142,-0.45794,1,0,
06.23 16:36:11:160,25337,-0.00237,-0.03289,9.80468,0.00000,0.00000,0.00161,0.20054,0.18319,-0.61585,-0.37126,54.50897,0.00839,-0.88898,0.00291,0.00142,-0.45794,1,0,
06.23 16:36:11:170,25338,-0.01114,-0.05626,9.80315,0.00000,0.00000,0.00161,0.20104,0.18119,-0.61586,-0.37062,54.50850,0.00887,-0.88898,0.00291,0.00141,-0.45794,1,0,
06.23 16:36:11:181,25339,-0.02927,-0.05422,9.81526,0.00000,0.00000,0.00161,0.20105,0.17971,-0.61686,-0.36977,54.50896,0.01027,-0.88898,0.00291,0.00140,-0.45794,1,0,
06.23 16:36:11:192,25340,-0.01383,-0.04958,9.79242,0.00000,0.00000,0.00161,0.20105,0.18273,-0.61784,-0.37023,54.50944,0.00948,-0.88897,0.00291,0.00141,-0.45794,1,0,
06.23 16:36:11:201,25341,-0.00434,-0.05402,9.79745,0.00000,0.00000,0.00161,0.20204,0.18220,-0.61634,-0.37062,54.50842,0.00992,-0.88898,0.00291,0.00140,-0.45794,1,0,
06.23 16:36:11:212,25342,-0.00182,-0.06218,9.78985,0.00000,0.00000,0.00161,0.20252,0.18266,-0.61435,-0.36774,54.50787,0.01038,-0.88898,0.00289,0.00139,-0.45793,1,0,
06.23 16:36:11:221,25343,-0.01332,-0.06399,9.81047,0.00000,0.00000,0.00161,0.20204,0.18021,-0.61685,-0.36729,54.50659,0.01088,-0.88899,0.00289,0.00138,-0.45792,1,0,
06.23 16:36:11:230,25344,-0.03550,-0.04928,9.80263,0.00000,0.00000,0.00161,0.20153,0.18216,-0.61436,-0.36792,54.50606,0.00999,-0.88899,0.00289,0.00139,-0.45792,1,0,
06.23 16:36:11:241,25345,-0.00537,-0.03692,9.79815,0.00000,0.00000,0.00161,0.20253,0.18119,-0.61585,-0.36860,54.50660,0.01071,-0.88899,0.00290,0.00139,-0.45792,1,0,
06.23 16:36:11:251,25346,-0.00803,-0.05105,9.80709,0.00000,0.00000,0.00161,0.20005,0.17819,-0.61588,-0.36893,54.50598,0.01096,-0.88899,0.00291,0.00139,-0.45792,1,0,
06.23 16:36:11:261,25347,0.00346,-0.05323,9.79857,0.00000,0.00000,0.00161,0.20154,0.18120,-0.61635,-0.36912,54.50645,0.01108,-0.88899,0.00291,0.00139,-0.45792,1,0,
06.23 16:36:11:271,25348,-0.01980,-0.06593,9.78916,0.00000,0.00000,0.00161,0.20153,0.17866,-0.61437,-0.36896,54.50643,0.01167,-0.88899,0.00291,0.00138,-0.45792,1,0,
06.23 16:36:11:282,25349,-0.00021,-0.05130,9.81236,0.00000,0.00000,0.00161,0.20203,0.18218,-0.61535,-0.36817,54.50701,0.01214,-0.88898,0.00290,0.00138,-0.45793,1,0,
06.23 16:36:11:292,25350,-0.00134,-0.06181,9.79755,0.00000,0.00000,0.00161,0.20153,0.18366,-0.61435,-0.36739,54.50751,0.01182,-0.88898,0.00290,0.00138,-0.45793,1,0,
06.23 16:36:11:301,25351,0.01492,-0.04805,9.79538,0.00000,0.00000,0.00161,0.20104,0.18120,-0.61635,-0.36689,54.50777,0.01274,-0.88898,0.00290,0.00137,-0.45793,1,0,
06.23 16:36:11:311,25352,-0.00124,-0.05310,9.80840,0.00000,0.00000,0.00161,0.20252,0.17966,-0.61436,-0.36873,54.50840,0.01231,-0.88898,0.00291,0.00138,-0.45794,1,0,
06.23 16:36:11:321,25353,-0.01254,-0.07232,9.80022,0.00000,0.00000,0.00161,0.20252,0.18066,-0.61435,-0.36943,54.50780,0.01238,-0.88898,0.00292,0.00138,-0.45793,1,0,
06.23 16:36:11:330,25354,-0.02757,-0.06474,9.78928,0.00000,0.00000,0.00161,0.20204,0.18123,-0.61784,-0.36946,54.50813,0.01227,-0.88898,0.00292,0.00138,-0.45793,1,0,
06.23 16:36:11:341,25355,-0.00768,-0.06732,9.79679,0.00000,0.00000,0.00161,0.20104,0.18268,-0.61535,-0.36891,54.50810,0.01223,-0.88898,0.00291,0.00138,-0.45793,1,0,
06.23 16:36:11:351,25356,-0.01786,-0.06482,9.80425,0.00000,0.00000,0.00161,0.20153,0.18166,-0.61436,-0.36805,54.50775,0.01100,-0.88898,0.00290,0.00139,-0.45793,1,0,
06.23 16:36:11:361,25357,-0.01242,-0.06532,9.80775,0.00000,0.00000,0.00161,0.20203,0.17968,-0.61536,-0.36833,54.50779,0.01072,-0.88898,0.00290,0.00139,-0.45793,1,0,
06.23 16:36:11:371,25358,0.00253,-0.06183,9.79409,0.00000,0.00000,0.00161,0.19906,0.18319,-0.61636,-0.36795,54.50786,0.01077,-0.88898,0.00290,0.00139,-0.45793,1,0,
06.23 16:36:11:381,25359,0.00464,-0.04018,9.79960,0.00000,0.00000,0.00161,0.20201,0.18462,-0.61235,-0.36740,54.50830,0.01219,-0.88898,0.00290,0.00137,-0.45794,1,0,
06.23 16:36:11:392,25360,-0.00449,-0.05613,9.81464,0.00000,0.00000,0.00161,0.20353,0.18071,-0.61634,-0.36863,54.50815,0.01208,-0.88898,0.00291,0.00138,-0.45794,1,0,
06.23 16:36:11:401,25361,-0.03215,-0.05995,9.79972,0.00000,0.00000,0.00161,0.20202,0.18315,-0.61385,-0.36972,54.50830,0.01224,-0.88898,0.00292,0.00138,-0.45794,1,0,
06.23 16:36:11:411,25362,-0.00346,-0.06540,9.80086,0.00000,0.00000,0.00161,0.20055,0.18070,-0.61636,-0.36885,54.50887,0.01099,-0.88898,0.00291,0.00139,-0.45794,1,0,
06.23 16:36:11:422,25363,-0.01429,-0.05685,9.80852,0.00000,0.00000,0.00161,0.20104,0.18070,-0.61636,-0.36883,54.50907,0.01067,-0.88898,0.00290,0.00139,-0.45794,1,0,
06.23 16:36:11:431,25364,-0.00490,-0.05091,9.79242,0.00000,0.00000,0.00161,0.20350,0.18211,-0.61185,-0.36746,54.50861,0.01090,-0.88898,0.00289,0.00138,-0.45794,1,0,
06.23 16:36:11:442,25365,-0.01677,-0.05281,9.79605,0.00000,0.00000,0.00161,0.20253,0.18119,-0.61585,-0.36771,54.50979,0.01086,-0.88897,0.00290,0.00139,-0.45795,1,0,
06.23 16:36:11:452,25366,0.00604,-0.06048,9.80191,0.00000,0.00000,0.00161,0.20104,0.18317,-0.61485,-0.36540,54.50978,0.01129,-0.88897,0.00288,0.00137,-0.45795,1,0,
06.23 16:36:11:460,25367,0.00567,-0.07128,9.81093,0.00000,0.00000,0.00161,0.20302,0.18217,-0.61484,-0.36396,54.50766,0.01100,-0.88898,0.00287,0.00137,-0.45793,1,0,
06.23 16:36:11:472,25368,-0.01674,-0.06107,9.80313,0.00000,0.00000,0.00161,0.20055,0.18371,-0.61735,-0.36528,54.50739,0.01147,-0.88898,0.00288,0.00137,-0.45793,1,0,
06.23 16:36:11:481,25369,-0.01640,-0.05824,9.80494,0.00000,0.00000,0.00161,0.20352,0.18418,-0.61533,-0.36710,54.50731,0.01190,-0.88898,0.00290,0.00137,-0.45793,1,0,
06.23 16:36:11:492,25370,-0.00013,-0.06591,9.80403,0.00000,0.00000,0.00161,0.20153,0.18017,-0.61486,-0.36797,54.50627,0.01208,-0.88899,0.00290,0.00138,-0.45792,1,0,
06.23 16:36:11:502,25371,-0.01813,-0.03622,9.78789,0.00000,0.00000,0.00161,0.20301,0.18263,-0.61285,-0.36856,54.50653,0.01205,-0.88899,0.00291,0.00138,-0.45792,1,0,
06.23 16:36:11:512,25372,-0.00580,-0.05078,9.80747,0.00000,0.00000,0.00161,0.20303,0.18220,-0.61634,-0.36837,54.50620,0.01173,-0.88899,0.00290,0.00138,-0.45792,1,0,
06.23 16:36:11:522,25373,0.00944,-0.06161,9.79936,0.00000,0.00000,0.00161,0.20054,0.18018,-0.61537,-0.36725,54.50641,0.01207,-0.88899,0.00290,0.00137,-0.45792,1,0,
06.23 16:36:11:532,25374,-0.01416,-0.06085,9.78773,0.00000,0.00000,0.00161,0.20402,0.18019,-0.61534,-0.36775,54.50613,0.01192,-0.88899,0.00290,0.00138,-0.45792,1,0,
06.23 16:36:11:542,25375,-0.00176,-0.05188,9.78735,0.00000,0.00000,0.00161,0.20104,0.18220,-0.61635,-0.36757,54.50584,0.01099,-0.88899,0.00290,0.00138,-0.45792,1,0,
06.23 16:36:11:553,25376,-0.00398,-0.07389,9.82056,0.00000,0.00000,0.00161,0.20204,0.18272,-0.61734,-0.36724,54.50611,0.01110,-0.88899,0.00289,0.00138,-0.45792,1,0,
06.23 16:36:11:562,25377,-0.03151,-0.07235,9.80957,0.00000,0.00000,0.00161,0.20402,0.18469,-0.61582,-0.36695,54.50624,0.01156,-0.88899,0.00289,0.00138,-0.45792,1,0,
06.23 16:36:11:571,25378,-0.02338,-0.04597,9.80144,0.00000,0.00000,0.00161,0.20254,0.18372,-0.61733,-0.36788,54.50752,0.01166,-0.88898,0.00290,0.00138,-0.45793,1,0,
06.23 16:36:11:586,25379,-0.01473,-0.05835,9.80706,0.00000,0.00000,0.00161,0.20403,0.18372,-0.61732,-0.36870,54.50733,0.01080,-0.88898,0.00290,0.00139,-0.45793,1,0,
06.23 16:36:11:592,25380,0.00482,-0.04206,9.80401,0.00000,0.00000,0.00161,0.20154,0.18271,-0.61684,-0.36888,54.50725,0.01120,-0.88898,0.00291,0.00139,-0.45793,1,0,
06.23 16:36:11:601,25381,-0.01304,-0.06878,9.78112,0.00000,0.00000,0.00161,0.20203,0.18166,-0.61435,-0.37102,54.50835,0.01173,-0.88898,0.00293,0.00139,-0.45794,1,0,
06.23 16:36:11:611,25382,-0.02251,-0.03581,9.79679,0.00000,0.00000,0.00161,0.20154,0.18419,-0.61584,-0.37130,54.50874,0.01256,-0.88898,0.00293,0.00139,-0.45794,1,0,
06.23 16:36:11:621,25383,0.04330,-0.04297,9.78813,0.00000,0.00000,0.00161,0.20303,0.18322,-0.61733,-0.36956,54.50719,0.01144,-0.88898,0.00291,0.00139,-0.45793,1,0,
06.23 16:36:11:631,25384,0.00910,-0.06058,9.78253,0.00000,0.00000,0.00161,0.20252,0.18164,-0.61336,-0.37065,54.50740,0.01299,-0.88898,0.00293,0.00138,-0.45793,1,0,
06.23 16:36:11:642,25385,-0.01710,-0.04957,9.80289,0.00000,0.00000,0.00161,0.20105,0.18173,-0.61785,-0.37047,54.50813,0.01415,-0.88898,0.00293,0.00137,-0.45793,1,0,
06.23 16:36:11:651,25386,-0.01430,-0.05494,9.81653,0.00000,0.00000,0.00161,0.20154,0.18320,-0.61634,-0.36985,54.50848,0.01416,-0.88898,0.00293,0.00137,-0.45794,1,0,
06.23 16:36:11:662,25387,-0.03060,-0.05721,9.79207,0.00000,0.00000,0.00161,0.20105,0.18221,-0.61685,-0.36897,54.50798,0.01469,-0.88898,0.00292,0.00136,-0.45793,1,0,
06.23 16:36:11:671,25388,-0.02058,-0.04044,9.80093,0.00000,0.00000,0.00161,0.20402,0.18369,-0.61582,-0.36977,54.50856,0.01362,-0.88898,0.00292,0.00137,-0.45794,1,0,
06.23 16:36:11:681,25389,0.00121,-0.05087,9.81126,0.00000,0.00000,0.00161,0.20254,0.18071,-0.61684,-0.37016,54.50960,0.01410,-0.88897,0.00293,0.00137,-0.45795,1,0,
06.23 16:36:11:692,25390,0.01508,-0.05653,9.79280,0.00000,0.00000,0.00161,0.20303,0.18419,-0.61583,-0.37065,54.50864,0.01434,-0.88898,0.00293,0.00137,-0.45794,1,0,
06.23 16:36:11:702,25391,-0.01293,-0.04987,9.78973,0.00000,0.00000,0.00161,0.20153,0.18317,-0.61485,-0.37076,54.50904,0.01443,-0.88898,0.00293,0.00137,-0.45794,1,0,
06.23 16:36:11:711,25392,-0.00400,-0.04370,9.81748,0.00000,0.00000,0.00161,0.20252,0.18166,-0.61435,-0.37124,54.50932,0.01381,-0.88898,0.00294,0.00138,-0.45794,1,0,
06.23 16:36:11:722,25393,0.01472,-0.06182,9.81565,0.00000,0.00000,0.00161,0.20351,0.18364,-0.61334,-0.37173,54.51013,0.01196,-0.88897,0.00293,0.00139,-0.45795,1,0,
06.23 16:36:11:731,25394,-0.00961,-0.05676,9.80697,0.00000,0.00000,0.00161,0.20203,0.18119,-0.61585,-0.37179,54.51011,0.01191,-0.88897,0.00293,0.00139,-0.45795,1,0,
06.23 16:36:11:741,25395,-0.01791,-0.04653,9.78689,0.00000,0.00000,0.00161,0.20006,0.18373,-0.61834,-0.37130,54.51043,0.01157,-0.88897,0.00293,0.00139,-0.45795,1,0,
06.23 16:36:11:752,25396,-0.01780,-0.03671,9.79764,0.00000,0.00000,0.00161,0.20303,0.18221,-0.61683,-0.37210,54.51038,0.01107,-0.88897,0.00293,0.00140,-0.45795,1,0,
06.23 16:36:11:762,25397,-0.00335,-0.05644,9.77726,0.00000,0.00000,0.00161,0.20203,0.18369,-0.61584,-0.37256,54.51026,0.01188,-0.88897,0.00294,0.00140,-0.45795,1,0,
06.23 16:36:11:771,25398,0.00033,-0.06681,9.80189,0.00000,0.00000,0.00161,0.20203,0.18268,-0.61535,-0.37300,54.51008,0.01224,-0.88897,0.00294,0.00140,-0.45795,1,0,
06.23 16:36:11:781,25399,-0.00590,-0.06412,9.79822,0.00000,0.00000,0.00161,0.20351,0.18214,-0.61335,-0.37264,54.51110,0.01384,-0.88897,0.00295,0.00138,-0.45796,1,0,
06.23 16:36:11:791,25400,-0.03631,-0.04375,9.80258,0.00000,0.00000,0.00161,0.20105,0.18273,-0.61784,-0.37341,54.51145,0.01400,-0.88897,0.00295,0.00138,-0.45796,1,0,
06.23 16:36:11:802,25401,-0.00495,-0.05010,9.80208,0.00000,0.00000,0.00161,0.20203,0.18168,-0.61535,-0.37426,54.51204,0.01460,-0.88896,0.00296,0.00138,-0.45797,1,0,
06.23 16:36:11:812,25402,-0.00697,-0.04321,9.80678,0.00000,0.00000,0.00161,0.20254,0.18222,-0.61733,-0.37248,54.51099,0.01522,-0.88897,0.00295,0.00137,-0.45796,1,0,
06.23 16:36:11:821,25403,-0.01979,-0.03944,9.80807,0.00000,0.00000,0.00161,0.20054,0.18068,-0.61537,-0.37201,54.51187,0.01497,-0.88896,0.00295,0.00137,-0.45796,1,0,
06.23 16:36:11:831,25404,-0.01444,-0.06855,9.78966,0.00000,0.00000,0.00161,0.20451,0.18269,-0.61533,-0.37205,54.51171,0.01576,-0.88897,0.00295,0.00136,-0.45796,1,0,
06.23 16:36:11:842,25405,-0.00985,-0.05595,9.80396,0.00000,0.00000,0.00161,0.20155,0.18423,-0.61783,-0.37166,54.51316,0.01573,-0.88896,0.00295,0.00136,-0.45797,1,0,
06.23 16:36:11:852,25406,0.00012,-0.08257,9.78787,0.00000,0.00000,0.00161,0.20352,0.18269,-0.61583,-0.37295,54.51314,0.01464,-0.88896,0.00295,0.00138,-0.45797,1,0,
06.23 16:36:11:861,25407,-0.01146,-0.05940,9.79927,0.00000,0.00000,0.00161,0.20352,0.18318,-0.61533,-0.37245,54.51266,0.01513,-0.88896,0.00295,0.00137,-0.45797,1,0,
06.23 16:36:11:871,25408,-0.01214,-0.06688,9.80616,0.00000,0.00000,0.00161,0.20302,0.18367,-0.61484,-0.37183,54.51280,0.01496,-0.88896,0.00294,0.00137,-0.45797,1,0,
06.23 16:36:11:881,25409,-0.02052,-0.06983,9.80241,0.00000,0.00000,0.00161,0.20104,0.18220,-0.61635,-0.37267,54.51366,0.01474,-0.88896,0.00295,0.00138,-0.45798,1,0,
06.23 16:36:11:891,25410,-0.01019,-0.05995,9.80113,0.00000,0.00000,0.00161,0.20204,0.18272,-0.61734,-0.37368,54.51386,0.01518,-0.88896,0.00296,0.00138,-0.45798,1,0,
06.23 16:36:11:902,25411,0.00294,-0.05487,9.79634,0.00000,0.00000,0.00161,0.20303,0.18321,-0.61683,-0.37254,54.51379,0.01459,-0.88896,0.00295,0.00138,-0.45798,1,0,
06.23 16:36:11:910,25412,0.00125,-0.05869,9.80034,0.00000,0.00000,0.00161,0.20254,0.18274,-0.61833,-0.37233,54.51419,0.01490,-0.88896,0.00295,0.00137,-0.45798,1,0,
06.23 16:36:11:921,25413,-0.00159,-0.05054,9.78799,0.00000,0.00000,0.00161,0.20302,0.18566,-0.61433,-0.37265,54.51514,0.01462,-0.88895,0.00295,0.00138,-0.45799,1,0,
06.23 16:36:11:931,25414,-0.00177,-0.05145,9.79452,0.00000,0.00000,0.00161,0.20302,0.18516,-0.61433,-0.37390,54.51604,0.01484,-0.88895,0.00296,0.00138,-0.45800,1,0,
06.23 16:36:11:942,25415,-0.01026,-0.04651,9.82139,0.00000,0.00000,0.00161,0.19955,0.18519,-0.61635,-0.37469,54.51624,0.01515,-0.88895,0.00297,0.00138,-0.45800,1,0,
06.23 16:36:11:951,25416,-0.01922,-0.05103,9.81207,0.00000,0.00000,0.00161,0.20253,0.18319,-0.61584,-0.37699,54.51704,0.01450,-0.88894,0.00298,0.00139,-0.45800,1,0,
06.23 16:36:11:962,25417,-0.00215,-0.05600,9.79521,0.00000,0.00000,0.00161,0.20403,0.18224,-0.61782,-0.37745,54.51640,0.01585,-0.88895,0.00299,0.00139,-0.45800,1,0,
06.23 16:36:11:971,25418,0.00111,-0.06425,9.80170,0.00000,0.00000,0.00161,0.20104,0.18420,-0.61634,-0.37702,54.51690,0.01618,-0.88894,0.00299,0.00138,-0.45800,1,0,
06.23 16:36:11:981,25419,-0.01357,-0.06241,9.80711,0.00000,0.00000,0.00161,0.20152,0.18164,-0.61336,-0.37681,54.51703,0.01527,-0.88894,0.00298,0.00139,-0.45800,1,0,
06.23 16:36:11:990,25420,0.00686,-0.05941,9.78572,0.00000,0.00000,0.00161,0.20154,0.18170,-0.61635,-0.37714,54.51674,0.01523,-0.88895,0.00299,0.00139,-0.45800,1,0,
06.23 16:36:12:001,25421,0.02129,-0.04965,9.79993,0.00000,0.00000,0.00161,0.20352,0.18020,-0.61584,-0.37669,54.51587,0.01488,-0.88895,0.00298,0.00139,-0.45799,1,0,
06.23 16:36:12:015,25422,-0.01146,-0.03933,9.80179,0.00000,0.00000,0.00161,0.20155,0.18423,-0.61783,-0.37646,54.51490,0.01503,-0.88895,0.00298,0.00139,-0.45799,1,0,
06.23 16:36:12:022,25423,-0.01760,-0.06039,9.81026,0.00000,0.00000,0.00161,0.20202,0.18313,-0.61286,-0.37704,54.51344,0.01524,-0.88896,0.00299,0.00139,-0.45798,1,0,
06.23 16:36:12:032,25424,-0.01544,-0.05763,9.80087,0.00000,0.00000,0.00161,0.20252,0.18116,-0.61435,-0.37721,54.51372,0.01541,-0.88896,0.00299,0.00139,-0.45798,1,0,
06.23 16:36:12:043,25425,-0.00259,-0.06544,9.78744,0.00000,0.00000,0.00161,0.20103,0.18316,-0.61436,-0.37674,54.51339,0.01541,-0.88896,0.00298,0.00139,-0.45798,1,0,
06.23 16:36:12:052,25426,-0.01703,-0.04945,9.79040,0.00000,0.00000,0.00161,0.20304,0.18324,-0.61832,-0.37762,54.51358,0.01495,-0.88896,0.00299,0.00139,-0.45798,1,0,
06.23 16:36:12:064,25427,-0.01890,-0.06930,9.79130,0.00000,0.00000,0.00161,0.20055,0.18270,-0.61635,-0.37740,54.51381,0.01551,-0.88896,0.00299,0.00139,-0.45798,1,0,
06.23 16:36:12:071,25428,0.01709,-0.04281,9.78940,0.00000,0.00000,0.00161,0.20501,0.18168,-0.61483,-0.37757,54.51308,0.01470,-0.88896,0.00299,0.00139,-0.45797,1,0,
06.23 16:36:12:082,25429,-0.00100,-0.05925,9.79068,0.00000,0.00000,0.00161,0.20301,0.18211,-0.61186,-0.37704,54.51347,0.01498,-0.88896,0.00298,0.00139,-0.45798,1,0,
06.23 16:36:12:091,25430,-0.00927,-0.05836,9.78355,0.00000,0.00000,0.00161,0.20004,0.18416,-0.61486,-0.37578,54.51333,0.01466,-0.88896,0.00297,0.00139,-0.45798,1,0,
06.23 16:36:12:101,25431,-0.00188,-0.06134,9.80473,0.00000,0.00000,0.00161,0.20202,0.18464,-0.61335,-0.37446,54.51370,0.01393,-0.88896,0.00296,0.00139,-0.45798,1,0,
06.23 16:36:12:112,25432,0.00439,-0.05404,9.79104,0.00000,0.00000,0.00161,0.20303,0.18272,-0.61733,-0.37665,54.51481,0.01235,-0.88895,0.00297,0.00141,-0.45799,1,0,
06.23 16:36:12:122,25433,-0.02047,-0.05782,9.79776,0.00000,0.00000,0.00161,0.20105,0.18371,-0.61684,-0.37728,54.51628,0.01243,-0.88895,0.00298,0.00141,-0.45800,1,0,
06.23 16:36:12:132,25434,0.00171,-0.05204,9.78460,0.00000,0.00000,0.00161,0.20352,0.18217,-0.61484,-0.37624,54.51628,0.01103,-0.88895,0.00296,0.00142,-0.45800,1,0,
06.23 16:36:12:141,25435,0.01424,-0.05384,9.81641,0.00000,0.00000,0.00161,0.20203,0.18217,-0.61485,-0.37618,54.51569,0.01121,-0.88895,0.00296,0.00142,-0.45799,1,0,
06.23 16:36:12:151,25436,0.00305,-0.06260,9.79519,0.00000,0.00000,0.00161,0.20153,0.18316,-0.61435,-0.37651,54.51645,0.01131,-0.88895,0.00297,0.00142,-0.45800,1,0,
06.23 16:36:12:162,25437,-0.02792,-0.06077,9.80937,0.00000,0.00000,0.00161,0.20202,0.18415,-0.61385,-0.37636,54.51706,0.01156,-0.88894,0.00297,0.00141,-0.45800,1,0,
06.23 16:36:12:172,25438,-0.03021,-0.06059,9.79300,0.00000,0.00000,0.00161,0.20400,0.18312,-0.61234,-0.37664,54.51731,0.01119,-0.88894,0.00297,0.00142,-0.45801,1,0,
06.23 16:36:12:192,25439,-0.00863,-0.05886,9.80103,0.00000,0.00000,0.00161,0.20551,0.18520,-0.61581,-0.37702,54.51791,0.01091,-0.88894,0.00297,0.00142,-0.45801,1,0,
06.23 16:36:12:195,25440,0.00255,-0.05489,9.79109,0.00000,0.00000,0.00161,0.20005,0.18118,-0.61537,-0.37749,54.51802,0.01082,-0.88894,0.00297,0.00142,-0.45801,1,0,
06.23 16:36:12:201,25441,-0.00935,-0.05262,9.80327,0.00000,0.00000,0.00161,0.20203,0.18368,-0.61534,-0.37707,54.51814,0.00997,-0.88894,0.00296,0.00143,-0.45801,1,0,
06.23 16:36:12:210,25442,-0.00132,-0.04095,9.81112,0.00000,0.00000,0.00161,0.20103,0.18166,-0.61436,-0.37717,54.51780,0.00992,-0.88894,0.00297,0.00143,-0.45801,1,0,
06.23 16:36:12:220,25443,-0.00835,-0.04494,9.80988,0.00000,0.00000,0.00161,0.20104,0.18219,-0.61585,-0.37760,54.51807,0.01026,-0.88894,0.00297,0.00143,-0.45801,1,0,
06.23 16:36:12:231,25444,-0.00472,-0.03736,9.79722,0.00000,0.00000,0.00161,0.20550,0.17918,-0.61483,-0.37832,54.51885,0.01099,-0.88894,0.00298,0.00143,-0.45802,1,0,
06.23 16:36:12:242,25445,-0.00108,-0.06360,9.80105,0.00000,0.00000,0.00161,0.20252,0.18215,-0.61385,-0.37827,54.51924,0.01067,-0.88894,0.00298,0.00143,-0.45802,1,0,
06.23 16:36:12:253,25446,-0.02145,-0.04077,9.80401,0.00000,0.00000,0.00161,0.20054,0.17966,-0.61437,-0.37986,54.51911,0.01141,-0.88894,0.00299,0.00143,-0.45802,1,0,
06.23 16:36:12:262,25447,-0.01460,-0.06368,9.79371,0.00000,0.00000,0.00161,0.20202,0.18415,-0.61385,-0.37808,54.51873,0.01056,-0.88894,0.00298,0.00143,-0.45802,1,0,
06.23 16:36:12:272,25448,-0.00416,-0.06072,9.79793,0.00000,0.00000,0.00161,0.20252,0.18214,-0.61335,-0.37940,54.51952,0.01066,-0.88893,0.00299,0.00143,-0.45802,1,0,
06.23 16:36:12:282,25449,0.00596,-0.04357,9.78305,0.00000,0.00000,0.00161,0.20203,0.18216,-0.61435,-0.37847,54.51967,0.00988,-0.88893,0.00298,0.00144,-0.45802,1,0,
06.23 16:36:12:291,25450,-0.01483,-0.06049,9.80463,0.00000,0.00000,0.00161,0.20302,0.18218,-0.61534,-0.37879,54.51868,0.01172,-0.88894,0.00299,0.00142,-0.45802,1,0,
06.23 16:36:12:301,25451,-0.01056,-0.08031,9.80661,0.00000,0.00000,0.00161,0.20152,0.18113,-0.61287,-0.37931,54.51910,0.01267,-0.88894,0.00299,0.00142,-0.45802,1,0,
06.23 16:36:12:311,25452,-0.01243,-0.04938,9.80585,0.00000,0.00000,0.00161,0.20153,0.18368,-0.61535,-0.38076,54.51945,0.01297,-0.88893,0.00301,0.00142,-0.45802,1,0,
