Time,Counter,ax,ay,az,gx,gy,gz,mx,my,mz,roll,yaw,pitch,q0,q1,q2,q3,Rest,Mag Disturbance,
06.29 11:26:23:156,1535,0.09166,-0.07277,9.82564,0.00000,0.00000,0.00000,0.38865,-0.12228,-0.59852,-0.38587,104.73578,-0.46614,0.61059,0.00117,-0.00515,0.79193,1,1,
06.29 11:26:23:156,1536,0.06902,-0.06739,9.79621,0.00000,0.00000,0.00000,0.38916,-0.12175,-0.60000,-0.38686,104.73827,-0.46599,0.61057,0.00116,-0.00516,0.79194,1,1,
06.29 11:26:23:157,1537,0.05864,-0.07673,9.83036,0.00000,0.00000,0.00000,0.38716,-0.12181,-0.59703,-0.38778,104.73798,-0.46478,0.61058,0.00115,-0.00516,0.79194,1,1,
06.29 11:26:23:161,1538,0.07521,-0.07206,9.83965,0.00000,0.00000,-2525397680142175760794213416960.00000,0.39013,-0.12183,-0.59552,-0.38696,104.73791,-0.46512,0.61058,0.00115,-0.00515,0.79194,1,0,
06.29 11:26:23:170,1539,0.08205,-0.09145,9.83892,0.00000,0.00000,-2525397680142175760794213416960.00000,0.38765,-0.12230,-0.59753,-0.38695,104.73158,-0.46485,0.61062,0.00115,-0.00515,0.79191,1,0,
06.29 11:26:23:180,1540,0.09867,-0.07975,9.81679,0.00000,0.00000,-2525397680142175760794213416960.00000,0.38964,-0.12227,-0.59851,-0.38676,104.73160,-0.46462,0.61062,0.00115,-0.00515,0.79191,1,0,
06.29 11:26:23:190,1541,0.07518,-0.06501,9.81729,0.00000,0.00000,-2525397680142175760794213416960.00000,0.38914,-0.12231,-0.59702,-0.38584,104.73008,-0.46405,0.61063,0.00115,-0.00514,0.79190,1,0,
06.29 11:26:23:200,1542,0.08525,-0.07906,9.81970,0.00000,0.00000,-2525397680142175760794213416960.00000,0.38866,-0.12026,-0.59950,-0.38516,104.72812,-0.46510,0.61064,0.00116,-0.00514,0.79189,1,0,
06.29 11:26:23:211,1543,0.08670,-0.04747,9.81145,0.00000,0.00000,-2525397680142175760794213416960.00000,0.38766,-0.12229,-0.59803,-0.38539,104.72497,-0.46387,0.61067,0.00115,-0.00514,0.79187,1,0,
06.29 11:26:23:220,1544,0.07974,-0.07578,9.82497,0.00000,0.00000,-2525397680142175760794213416960.00000,0.38866,-0.12277,-0.59901,-0.38595,104.72606,-0.46489,0.61066,0.00116,-0.00514,0.79188,1,0,
06.29 11:26:23:232,1545,0.08143,-0.06490,9.81837,0.00000,0.00000,-2525397680142175760794213416960.00000,0.38569,-0.12124,-0.60102,-0.38406,104.72559,-0.46584,0.61066,0.00117,-0.00514,0.79187,1,0,
06.29 11:26:23:240,1546,0.08859,-0.06974,9.83939,0.00000,0.00000,-2525397680142175760794213416960.00000,0.38915,-0.12179,-0.59801,-0.38397,104.73178,-0.46601,0.61062,0.00117,-0.00514,0.79191,1,0,
06.29 11:26:23:250,1547,0.07230,-0.06865,9.82928,0.00000,0.00000,-2525397680142175760794213416960.00000,0.38717,-0.12227,-0.59902,-0.38359,104.73051,-0.46559,0.61063,0.00117,-0.00513,0.79190,1,0,
06.29 11:26:23:259,1548,0.08552,-0.07342,9.81379,0.00000,0.00000,-2525397680142175760794213416960.00000,0.38965,-0.12077,-0.59900,-0.38359,104.72879,-0.46532,0.61064,0.00117,-0.00513,0.79189,1,0,
06.29 11:26:23:270,1549,0.10240,-0.08578,9.83741,0.00000,0.00000,-2525397680142175760794213416960.00000,0.38618,-0.12375,-0.60003,-0.38306,104.72849,-0.46552,0.61064,0.00118,-0.00513,0.79189,1,0,
06.29 11:26:23:281,1550,0.08630,-0.05943,9.81999,0.00000,0.00000,-2525397680142175760794213416960.00000,0.38766,-0.12278,-0.59852,-0.38232,104.72656,-0.46621,0.61066,0.00118,-0.00513,0.79188,1,0,
06.29 11:26:23:289,1551,0.09904,-0.07143,9.82535,0.00000,0.00000,-2525397680142175760794213416960.00000,0.38915,-0.12176,-0.59950,-0.38377,104.72653,-0.46568,0.61066,0.00117,-0.00513,0.79188,1,0,
06.29 11:26:23:301,1552,0.08283,-0.06733,9.82342,0.00000,0.00000,-2525397680142175760794213416960.00000,0.38667,-0.12178,-0.59853,-0.38395,104.72550,-0.46480,0.61066,0.00117,-0.00513,0.79187,1,0,
06.29 11:26:23:311,1553,0.06936,-0.08416,9.81786,0.00000,0.00000,-2525397680142175760794213416960.00000,0.38468,-0.12331,-0.59755,-0.38297,104.72572,-0.46489,0.61066,0.00117,-0.00512,0.79187,1,0,
06.29 11:26:23:319,1554,0.08701,-0.05914,9.82182,0.00000,0.00000,-2525397680142175760794213416960.00000,0.38817,-0.12273,-0.60101,-0.38156,104.72527,-0.46501,0.61066,0.00118,-0.00511,0.79187,1,0,
06.29 11:26:23:329,1555,0.08541,-0.05473,9.81822,0.00000,0.00000,-2525397680142175760794213416960.00000,0.38568,-0.12028,-0.59903,-0.38238,104.72613,-0.46538,0.61066,0.00118,-0.00512,0.79188,1,0,
06.29 11:26:23:340,1556,0.08801,-0.06725,9.81262,0.00000,0.00000,-2525397680142175760794213416960.00000,0.38866,-0.12275,-0.60001,-0.38434,104.72401,-0.46601,0.61067,0.00117,-0.00514,0.79187,1,0,
06.29 11:26:23:350,1557,0.09367,-0.04814,9.82730,0.00000,0.00000,-2525397680142175760794213416960.00000,0.38717,-0.12277,-0.59903,-0.38530,104.72394,-0.46628,0.61067,0.00117,-0.00515,0.79187,1,0,
06.29 11:26:23:360,1558,0.09029,-0.07407,9.81057,0.00000,0.00000,-2525397680142175760794213416960.00000,0.38766,-0.12430,-0.59753,-0.38528,104.72742,-0.46654,0.61065,0.00117,-0.00515,0.79188,1,0,
06.29 11:26:23:369,1559,0.06741,-0.07572,9.81655,0.00000,0.00000,-2525397680142175760794213416960.00000,0.38668,-0.12224,-0.60052,-0.38480,104.72701,-0.46640,0.61065,0.00117,-0.00514,0.79188,1,0,
06.29 11:26:23:381,1560,0.07591,-0.04895,9.82015,0.00000,0.00000,-2525397680142175760794213416960.00000,0.38865,-0.12129,-0.59801,-0.38481,104.72508,-0.46675,0.61067,0.00117,-0.00515,0.79187,1,0,
06.29 11:26:23:390,1561,0.07469,-0.06855,9.83205,0.00000,0.00000,-2525397680142175760794213416960.00000,0.38964,-0.12128,-0.59850,-0.38574,104.72398,-0.46738,0.61067,0.00117,-0.00516,0.79187,1,0,
06.29 11:26:23:400,1562,0.07625,-0.06077,9.82318,0.00000,0.00000,-2525397680142175760794213416960.00000,0.38965,-0.12075,-0.59999,-0.38591,104.72744,-0.46784,0.61065,0.00118,-0.00516,0.79188,1,0,
06.29 11:26:23:411,1563,0.07969,-0.05194,9.82022,0.00000,0.00000,-2525397680142175760794213416960.00000,0.38766,-0.12379,-0.59803,-0.38614,104.73198,-0.46687,0.61062,0.00117,-0.00516,0.79191,1,0,
06.29 11:26:23:420,1564,0.06849,-0.07393,9.81617,0.00000,0.00000,-2525397680142175760794213416960.00000,0.38816,-0.12428,-0.59853,-0.38549,104.73183,-0.46783,0.61062,0.00118,-0.00516,0.79191,1,0,
06.29 11:26:23:431,1565,0.05781,-0.08579,9.80795,0.00000,0.00000,-2525397680142175760794213416960.00000,0.38717,-0.12376,-0.59953,-0.38617,104.73432,-0.46700,0.61060,0.00117,-0.00516,0.79192,1,0,
06.29 11:26:23:440,1566,0.08204,-0.07395,9.81798,0.00000,0.00000,-2525397680142175760794213416960.00000,0.38519,-0.12176,-0.60003,-0.38665,104.73555,-0.46722,0.61059,0.00117,-0.00516,0.79193,1,0,
06.29 11:26:23:453,1567,0.06422,-0.05990,9.83231,0.00000,0.00000,-2525397680142175760794213416960.00000,0.38965,-0.12026,-0.59949,-0.38650,104.73283,-0.46741,0.61061,0.00117,-0.00516,0.79191,1,0,
06.29 11:26:23:462,1568,0.11217,-0.07488,9.82068,0.00000,0.00000,-2525397680142175760794213416960.00000,0.39015,-0.12024,-0.59999,-0.38630,104.73580,-0.46653,0.61059,0.00117,-0.00516,0.79193,1,0,
06.29 11:26:23:472,1569,0.06956,-0.06557,9.80854,0.00000,0.00000,-2525397680142175760794213416960.00000,0.38717,-0.12026,-0.59951,-0.38575,104.73203,-0.46655,0.61062,0.00117,-0.00515,0.79191,1,0,
06.29 11:26:23:481,1570,0.08909,-0.07946,9.82280,0.00000,0.00000,-2525397680142175760794213416960.00000,0.38716,-0.12329,-0.59803,-0.38601,104.73171,-0.46680,0.61062,0.00117,-0.00516,0.79191,1,0,
06.29 11:26:23:490,1571,0.08083,-0.06478,9.81011,0.00000,0.00000,-2525397680142175760794213416960.00000,0.38965,-0.12426,-0.59901,-0.38676,104.72939,-0.46593,0.61064,0.00116,-0.00516,0.79189,1,0,
06.29 11:26:23:500,1572,0.09529,-0.06651,9.81555,0.00000,0.00000,-2525397680142175760794213416960.00000,0.38816,-0.12426,-0.59952,-0.38545,104.72884,-0.46563,0.61064,0.00116,-0.00514,0.79189,1,0,
06.29 11:26:23:510,1573,0.09114,-0.06873,9.83603,0.00000,0.00000,-2525397680142175760794213416960.00000,0.38965,-0.12277,-0.59851,-0.38505,104.72826,-0.46540,0.61064,0.00116,-0.00514,0.79189,1,0,
06.29 11:26:23:520,1574,0.08654,-0.06468,9.81789,0.00000,0.00000,-2525397680142175760794213416960.00000,0.38816,-0.12077,-0.59901,-0.38503,104.72633,-0.46488,0.61066,0.00116,-0.00514,0.79188,1,0,
06.29 11:26:23:531,1575,0.07533,-0.06349,9.82308,0.00000,0.00000,-2525397680142175760794213416960.00000,0.38716,-0.12328,-0.59853,-0.38558,104.71976,-0.46401,0.61070,0.00115,-0.00514,0.79184,1,0,
06.29 11:26:23:541,1576,0.08980,-0.07148,9.82854,0.00000,0.00000,-2525397680142175760794213416960.00000,0.38916,-0.12274,-0.60001,-0.38640,104.72081,-0.46436,0.61069,0.00115,-0.00514,0.79185,1,0,
06.29 11:26:23:550,1577,0.08283,-0.08749,9.83889,0.00000,0.00000,-2525397680142175760794213416960.00000,0.38816,-0.12175,-0.60001,-0.38731,104.72059,-0.46369,0.61070,0.00114,-0.00515,0.79185,1,0,
06.29 11:26:23:560,1578,0.08670,-0.06983,9.82893,0.00000,0.00000,-2525397680142175760794213416960.00000,0.38966,-0.12171,-0.60149,-0.38682,104.71920,-0.46431,0.61071,0.00115,-0.00515,0.79184,1,0,
06.29 11:26:23:570,1579,0.08301,-0.06850,9.81746,0.00000,0.00000,-2525397680142175760794213416960.00000,0.38816,-0.12277,-0.59902,-0.38618,104.72150,-0.46502,0.61069,0.00116,-0.00515,0.79185,1,0,
06.29 11:26:23:580,1580,0.09471,-0.06035,9.83184,0.00000,0.00000,-2525397680142175760794213416960.00000,0.38964,-0.12278,-0.59801,-0.38618,104.72128,-0.46438,0.61069,0.00115,-0.00514,0.79185,1,0,
06.29 11:26:23:590,1581,0.06824,-0.06648,9.81929,0.00000,0.00000,-2525397680142175760794213416960.00000,0.38769,-0.12218,-0.60350,-0.38593,104.72182,-0.46429,0.61069,0.00115,-0.00514,0.79185,1,0,
06.29 11:26:23:599,1582,0.06431,-0.05633,9.80988,0.00000,0.00000,-2525397680142175760794213416960.00000,0.38767,-0.12224,-0.60051,-0.38541,104.72422,-0.46486,0.61067,0.00116,-0.00514,0.79187,1,0,
06.29 11:26:23:611,1583,0.06820,-0.05227,9.82182,0.00000,0.00000,-2525397680142175760794213416960.00000,0.38816,-0.12027,-0.59901,-0.38449,104.72221,-0.46483,0.61069,0.00116,-0.00513,0.79186,1,0,
06.29 11:26:23:620,1584,0.09059,-0.06495,9.81691,0.00000,0.00000,-2525397680142175760794213416960.00000,0.38767,-0.12074,-0.60051,-0.38410,104.71638,-0.46559,0.61073,0.00117,-0.00514,0.79182,1,0,
06.29 11:26:23:630,1585,0.08758,-0.07225,9.82685,0.00000,0.00000,-2525397680142175760794213416960.00000,0.38816,-0.12175,-0.60001,-0.38540,104.71304,-0.46622,0.61075,0.00117,-0.00515,0.79181,1,0,
06.29 11:26:23:640,1586,0.08240,-0.07657,9.83169,0.00000,0.00000,-2525397680142175760794213416960.00000,0.38916,-0.12074,-0.60050,-0.38515,104.71111,-0.46658,0.61076,0.00117,-0.00515,0.79180,1,0,
06.29 11:26:23:650,1587,0.07403,-0.07816,9.80268,0.00000,0.00000,-2525397680142175760794213416960.00000,0.38816,-0.12226,-0.59951,-0.38569,104.71249,-0.46605,0.61075,0.00116,-0.00515,0.79180,1,0,
06.29 11:26:23:660,1588,0.08677,-0.07674,9.81794,0.00000,0.00000,-2525397680142175760794213416960.00000,0.38966,-0.12222,-0.60100,-0.38507,104.71273,-0.46513,0.61075,0.00116,-0.00514,0.79181,1,0,
06.29 11:26:23:669,1589,0.08223,-0.06829,9.82354,0.00000,0.00000,-2525397680142175760794213416960.00000,0.38966,-0.12323,-0.60050,-0.38494,104.71310,-0.46517,0.61075,0.00116,-0.00514,0.79181,1,0,
06.29 11:26:23:681,1590,0.08267,-0.07923,9.82397,0.00000,0.00000,-2525397680142175760794213416960.00000,0.38617,-0.12227,-0.59903,-0.38598,104.71348,-0.46554,0.61075,0.00116,-0.00515,0.79181,1,0,
06.29 11:26:23:691,1591,0.08751,-0.05458,9.82590,0.00000,0.00000,-2525397680142175760794213416960.00000,0.38766,-0.12330,-0.59753,-0.38708,104.71073,-0.46579,0.61076,0.00116,-0.00516,0.79179,1,0,
06.29 11:26:23:699,1592,0.09350,-0.07713,9.82242,0.00000,0.00000,-2525397680142175760794213416960.00000,0.38866,-0.12275,-0.60001,-0.38661,104.71107,-0.46501,0.61076,0.00115,-0.00515,0.79180,1,0,
06.29 11:26:23:710,1593,0.07585,-0.05492,9.81448,0.00000,0.00000,-2525397680142175760794213416960.00000,0.38717,-0.12025,-0.60001,-0.38786,104.71052,-0.46590,0.61077,0.00115,-0.00516,0.79179,1,0,
06.29 11:26:23:720,1594,0.09792,-0.06940,9.83813,0.00000,0.00000,-2525397680142175760794213416960.00000,0.38666,-0.12030,-0.59803,-0.38900,104.71350,-0.46683,0.61075,0.00115,-0.00518,0.79181,1,0,
06.29 11:26:23:730,1595,0.08039,-0.05704,9.82556,0.00000,0.00000,-2525397680142175760794213416960.00000,0.39114,-0.12275,-0.59949,-0.39028,104.71722,-0.46699,0.61072,0.00115,-0.00519,0.79183,1,0,
06.29 11:26:23:740,1596,0.07474,-0.07041,9.81846,0.00000,0.00000,-2525397680142175760794213416960.00000,0.38667,-0.12276,-0.59953,-0.39093,104.72104,-0.46788,0.61069,0.00115,-0.00519,0.79185,1,0,
06.29 11:26:23:750,1597,0.09161,-0.06362,9.82576,0.00000,0.00000,-2525397680142175760794213416960.00000,0.38816,-0.12225,-0.60001,-0.39069,104.72216,-0.46837,0.61069,0.00115,-0.00520,0.79186,1,0,
06.29 11:26:23:760,1598,0.07757,-0.08340,9.82239,0.00000,0.00000,-2525397680142175760794213416960.00000,0.38767,-0.11873,-0.60100,-0.38985,104.72272,-0.46844,0.61068,0.00116,-0.00519,0.79186,1,0,
06.29 11:26:23:769,1599,0.08329,-0.05663,9.82325,0.00000,0.00000,-2525397680142175760794213416960.00000,0.38965,-0.12176,-0.59900,-0.38990,104.72539,-0.46888,0.61066,0.00116,-0.00519,0.79187,1,0,
06.29 11:26:23:780,1600,0.08455,-0.08093,9.80933,0.00000,0.00000,-2525397680142175760794213416960.00000,0.38716,-0.12379,-0.59803,-0.38952,104.71792,-0.46914,0.61071,0.00117,-0.00519,0.79183,1,0,
06.29 11:26:23:790,1601,0.09078,-0.06632,9.82306,0.00000,0.00000,-2525397680142175760794213416960.00000,0.38865,-0.12331,-0.59703,-0.39082,104.69505,-0.46734,0.61087,0.00115,-0.00519,0.79171,1,0,
06.29 11:26:23:800,1602,0.07910,-0.05690,9.81841,0.00000,0.00000,-2525397680142175760794213416960.00000,0.38915,-0.12279,-0.59802,-0.39047,104.69474,-0.46823,0.61088,0.00115,-0.00519,0.79171,1,0,
06.29 11:26:23:810,1603,0.09352,-0.04412,9.83255,0.00000,0.00000,-2525397680142175760794213416960.00000,0.38817,-0.12123,-0.60100,-0.38943,104.69355,-0.46826,0.61088,0.00116,-0.00519,0.79170,1,0,
06.29 11:26:23:820,1604,0.06844,-0.06214,9.82573,0.00000,0.00000,-2525397680142175760794213416960.00000,0.38865,-0.12179,-0.59802,-0.39037,104.68982,-0.46876,0.61091,0.00116,-0.00520,0.79168,1,0,
06.29 11:26:23:830,1605,0.08507,-0.08144,9.81403,0.00000,0.00000,-2525397680142175760794213416960.00000,0.38766,-0.12429,-0.59803,-0.38952,104.69402,-0.46922,0.61088,0.00117,-0.00519,0.79171,1,0,
06.29 11:26:23:841,1606,0.08473,-0.06054,9.81984,0.00000,0.00000,-2525397680142175760794213416960.00000,0.38618,-0.12226,-0.59953,-0.38828,104.69260,-0.46931,0.61089,0.00117,-0.00518,0.79170,1,0,
06.29 11:26:23:850,1607,0.08241,-0.05947,9.82154,0.00000,0.00000,-2525397680142175760794213416960.00000,0.38815,-0.12080,-0.59752,-0.38791,104.68659,-0.46877,0.61093,0.00117,-0.00518,0.79167,1,0,
06.29 11:26:23:859,1608,0.10033,-0.06581,9.81527,0.00000,0.00000,-2525397680142175760794213416960.00000,0.38866,-0.12326,-0.59951,-0.38776,104.68859,-0.46917,0.61092,0.00117,-0.00518,0.79168,1,0,
06.29 11:26:23:870,1609,0.07886,-0.08332,9.82876,0.00000,0.00000,-2525397680142175760794213416960.00000,0.39064,-0.11974,-0.59998,-0.38851,104.68761,-0.46925,0.61092,0.00117,-0.00519,0.79167,1,0,
06.29 11:26:23:880,1610,0.08077,-0.05567,9.81522,0.00000,0.00000,-2525397680142175760794213416960.00000,0.38668,-0.12124,-0.60052,-0.38826,104.68846,-0.46904,0.61092,0.00117,-0.00518,0.79168,1,0,
06.29 11:26:23:890,1611,0.08182,-0.05882,9.81634,0.00000,0.00000,-2525397680142175760794213416960.00000,0.38915,-0.12228,-0.59851,-0.38823,104.68281,-0.46753,0.61096,0.00116,-0.00517,0.79165,1,0,
06.29 11:26:23:900,1612,0.08534,-0.08267,9.82046,0.00000,0.00000,-2525397680142175760794213416960.00000,0.38767,-0.12176,-0.59952,-0.38746,104.68303,-0.46769,0.61096,0.00117,-0.00517,0.79165,1,0,
06.29 11:26:23:911,1613,0.06870,-0.08021,9.82351,0.00000,0.00000,-2525397680142175760794213416960.00000,0.38866,-0.12276,-0.59951,-0.38559,104.68438,-0.46784,0.61095,0.00118,-0.00516,0.79165,1,0,
06.29 11:26:23:921,1614,0.09848,-0.07095,9.81619,0.00000,0.00000,-2525397680142175760794213416960.00000,0.38716,-0.12228,-0.59853,-0.38471,104.68523,-0.46846,0.61094,0.00119,-0.00516,0.79166,1,0,
06.29 11:26:23:929,1615,0.08856,-0.05643,9.82191,0.00000,0.00000,-2525397680142175760794213416960.00000,0.39014,-0.12076,-0.59900,-0.38467,104.68593,-0.46971,0.61094,0.00119,-0.00516,0.79166,1,0,
06.29 11:26:23:940,1616,0.09236,-0.06151,9.81548,0.00000,0.00000,-2525397680142175760794213416960.00000,0.38815,-0.12229,-0.59802,-0.38500,104.68771,-0.46958,0.61092,0.00119,-0.00516,0.79167,1,0,
06.29 11:26:23:950,1617,0.07906,-0.05513,9.81679,0.00000,0.00000,-2525397680142175760794213416960.00000,0.38716,-0.12279,-0.59803,-0.38465,104.68833,-0.46918,0.61092,0.00119,-0.00516,0.79168,1,0,
06.29 11:26:23:960,1618,0.07712,-0.07809,9.81870,0.00000,0.00000,-2525397680142175760794213416960.00000,0.38816,-0.12176,-0.59951,-0.38316,104.68725,-0.46981,0.61093,0.00120,-0.00515,0.79167,1,0,
06.29 11:26:23:970,1619,0.05491,-0.06219,9.81119,0.00000,0.00000,-2525397680142175760794213416960.00000,0.38767,-0.12223,-0.60101,-0.38249,104.68563,-0.46961,0.61094,0.00121,-0.00515,0.79166,1,0,
06.29 11:26:23:980,1620,0.07369,-0.07444,9.81839,0.00000,0.00000,-2525397680142175760794213416960.00000,0.38866,-0.12023,-0.60100,-0.38262,104.68624,-0.46933,0.61093,0.00120,-0.00515,0.79166,1,0,
06.29 11:26:23:991,1621,0.09536,-0.05635,9.83417,0.00000,0.00000,-2525397680142175760794213416960.00000,0.38717,-0.11974,-0.60051,-0.38194,104.68844,-0.46906,0.61092,0.00120,-0.00514,0.79168,1,0,
06.29 11:26:24:000,1622,0.08085,-0.06561,9.82754,0.00000,0.00000,-2525397680142175760794213416960.00000,0.38716,-0.11928,-0.59852,-0.38083,104.69418,-0.46889,0.61088,0.00121,-0.00513,0.79171,1,0,
06.29 11:26:24:010,1623,0.09683,-0.06950,9.81710,0.00000,0.00000,-2525397680142175760794213416960.00000,0.38618,-0.12424,-0.60053,-0.38067,104.70017,-0.46882,0.61084,0.00121,-0.00513,0.79174,1,0,
06.29 11:26:24:020,1624,0.06935,-0.04570,9.82094,0.00000,0.00000,-2525397680142175760794213416960.00000,0.38915,-0.12378,-0.59802,-0.38042,104.69619,-0.46867,0.61086,0.00121,-0.00513,0.79172,1,0,
06.29 11:26:24:029,1625,0.08857,-0.06582,9.81510,0.00000,0.00000,-2525397680142175760794213416960.00000,0.38964,-0.12227,-0.59851,-0.38053,104.70060,-0.46770,0.61083,0.00120,-0.00512,0.79174,1,0,
06.29 11:26:24:040,1626,0.08317,-0.05785,9.81541,0.00000,0.00000,-2525397680142175760794213416960.00000,0.38866,-0.12274,-0.60051,-0.37971,104.70039,-0.46818,0.61084,0.00121,-0.00512,0.79174,1,0,
06.29 11:26:24:050,1627,0.08499,-0.08126,9.82359,0.00000,0.00000,-2525397680142175760794213416960.00000,0.38717,-0.12077,-0.59902,-0.37946,104.70174,-0.46830,0.61083,0.00121,-0.00512,0.79175,1,0,
06.29 11:26:24:061,1628,0.08637,-0.08443,9.82220,0.00000,0.00000,-2525397680142175760794213416960.00000,0.38915,-0.12227,-0.59901,-0.38046,104.69911,-0.46810,0.61084,0.00121,-0.00512,0.79173,1,0,
06.29 11:26:24:070,1629,0.10006,-0.07608,9.81264,0.00000,0.00000,-2525397680142175760794213416960.00000,0.38865,-0.12128,-0.59851,-0.38155,104.69907,-0.46798,0.61085,0.00120,-0.00513,0.79173,1,0,
06.29 11:26:24:080,1630,0.08063,-0.06707,9.81164,0.00000,0.00000,-2525397680142175760794213416960.00000,0.38915,-0.12127,-0.59900,-0.38220,104.70045,-0.46783,0.61084,0.00120,-0.00513,0.79174,1,0,
06.29 11:26:24:090,1631,0.08306,-0.09190,9.82099,0.00000,0.00000,-2525397680142175760794213416960.00000,0.38966,-0.12172,-0.60099,-0.38371,104.70324,-0.46876,0.61082,0.00119,-0.00515,0.79175,1,0,
06.29 11:26:24:100,1632,0.07230,-0.05869,9.82361,0.00000,0.00000,-2525397680142175760794213416960.00000,0.38765,-0.12281,-0.59703,-0.38404,104.70548,-0.46864,0.61080,0.00119,-0.00515,0.79177,1,0,
06.29 11:26:24:110,1633,0.08050,-0.05895,9.81348,0.00000,0.00000,-2525397680142175760794213416960.00000,0.38967,-0.12119,-0.60248,-0.38456,104.70747,-0.46920,0.61079,0.00119,-0.00516,0.79178,1,0,
06.29 11:26:24:120,1634,0.08934,-0.04833,9.82609,0.00000,0.00000,-2525397680142175760794213416960.00000,0.38966,-0.12272,-0.60100,-0.38572,104.70938,-0.46950,0.61077,0.00119,-0.00517,0.79179,1,0,
06.29 11:26:24:130,1635,0.09733,-0.09060,9.80377,0.00000,0.00000,-2525397680142175760794213416960.00000,0.38767,-0.12224,-0.60051,-0.38510,104.70953,-0.46899,0.61077,0.00119,-0.00516,0.79179,1,0,
06.29 11:26:24:141,1636,0.09637,-0.06098,9.82137,0.00000,0.00000,-2525397680142175760794213416960.00000,0.38964,-0.12079,-0.59800,-0.38584,104.70889,-0.46941,0.61078,0.00119,-0.00517,0.79178,1,0,
06.29 11:26:24:150,1637,0.09756,-0.07196,9.82318,0.00000,0.00000,-2525397680142175760794213416960.00000,0.38666,-0.12132,-0.59654,-0.38664,104.70418,-0.46932,0.61081,0.00118,-0.00517,0.79176,1,0,
06.29 11:26:24:160,1638,0.08050,-0.06952,9.81827,0.00000,0.00000,-2525397680142175760794213416960.00000,0.38866,-0.12224,-0.60051,-0.38664,104.70431,-0.46927,0.61081,0.00118,-0.00517,0.79176,1,0,
06.29 11:26:24:169,1639,0.09426,-0.04890,9.81398,0.00000,0.00000,-2525397680142175760794213416960.00000,0.38817,-0.12123,-0.60100,-0.38717,104.70344,-0.46857,0.61081,0.00117,-0.00517,0.79176,1,0,
06.29 11:26:24:180,1640,0.07789,-0.07668,9.82328,0.00000,0.00000,-2525397680142175760794213416960.00000,0.39015,-0.12175,-0.59950,-0.38705,104.69873,-0.46906,0.61085,0.00118,-0.00517,0.79173,1,0,
06.29 11:26:24:190,1641,0.09076,-0.06925,9.82566,0.00000,0.00000,-2525397680142175760794213416960.00000,0.39016,-0.12672,-0.60101,-0.38645,104.69862,-0.46948,0.61085,0.00118,-0.00517,0.79173,1,0,
06.29 11:26:24:200,1642,0.09441,-0.07528,9.84011,0.00000,0.00000,-2525397680142175760794213416960.00000,0.38717,-0.12125,-0.60002,-0.38590,104.69314,-0.46832,0.61089,0.00118,-0.00516,0.79170,1,0,
06.29 11:26:24:211,1643,0.10222,-0.06015,9.81138,0.00000,0.00000,-2525397680142175760794213416960.00000,0.38569,-0.12323,-0.60103,-0.38547,104.69833,-0.46943,0.61085,0.00119,-0.00517,0.79173,1,0,
06.29 11:26:24:220,1644,0.08591,-0.08052,9.82394,0.00000,0.00000,-2525397680142175760794213416960.00000,0.38816,-0.12277,-0.59902,-0.38427,104.70654,-0.46994,0.61079,0.00120,-0.00516,0.79177,1,0,
06.29 11:26:24:231,1645,0.09352,-0.07303,9.82487,0.00000,0.00000,-2525397680142175760794213416960.00000,0.39015,-0.12072,-0.60099,-0.38371,104.70470,-0.46926,0.61081,0.00120,-0.00515,0.79176,1,0,
06.29 11:26:24:241,1646,0.09472,-0.05884,9.83103,0.00000,0.00000,-2525397680142175760794213416960.00000,0.38866,-0.12324,-0.60051,-0.38316,104.70680,-0.46806,0.61079,0.00119,-0.00514,0.79177,1,0,
06.29 11:26:24:261,1647,0.06461,-0.07232,9.80714,0.00000,0.00000,-2525397680142175760794213416960.00000,0.38865,-0.12179,-0.59802,-0.38293,104.70660,-0.46761,0.61079,0.00119,-0.00514,0.79177,1,0,
06.29 11:26:24:264,1648,0.10200,-0.09630,9.82363,0.00000,0.00000,-2525397680142175760794213416960.00000,0.38966,-0.12273,-0.60050,-0.38335,104.70706,-0.46852,0.61079,0.00119,-0.00515,0.79178,1,0,
06.29 11:26:24:270,1649,0.07514,-0.04708,9.82244,0.00000,0.00000,-2525397680142175760794213416960.00000,0.38766,-0.12126,-0.59951,-0.38395,104.70626,-0.46863,0.61080,0.00119,-0.00515,0.79177,1,0,
06.29 11:26:24:279,1650,0.06947,-0.09456,9.83129,0.00000,0.00000,-2525397680142175760794213416960.00000,0.38717,-0.12327,-0.59903,-0.38252,104.70485,-0.46804,0.61081,0.00120,-0.00514,0.79176,1,0,
06.29 11:26:24:291,1651,0.09108,-0.08190,9.80303,0.00000,0.00000,-2525397680142175760794213416960.00000,0.39114,-0.11926,-0.59898,-0.38167,104.70497,-0.46873,0.61080,0.00120,-0.00514,0.79176,1,0,
06.29 11:26:24:301,1652,0.08649,-0.07168,9.82616,0.00000,0.00000,-2525397680142175760794213416960.00000,0.38617,-0.12377,-0.59904,-0.38002,104.70260,-0.46849,0.61082,0.00121,-0.00512,0.79175,1,0,
06.29 11:26:24:310,1653,0.08402,-0.07029,9.82819,0.00000,0.00000,-2525397680142175760794213416960.00000,0.38766,-0.12179,-0.59802,-0.37916,104.70272,-0.46883,0.61082,0.00122,-0.00512,0.79175,1,0,
06.29 11:26:24:320,1654,0.07578,-0.06540,9.80277,0.00000,0.00000,-2525397680142175760794213416960.00000,0.38963,-0.11982,-0.59651,-0.37955,104.70302,-0.46763,0.61082,0.00121,-0.00512,0.79175,1,0,
06.29 11:26:24:330,1655,0.08610,-0.05395,9.82852,0.00000,0.00000,-2525397680142175760794213416960.00000,0.38867,-0.12273,-0.60101,-0.38026,104.70096,-0.46644,0.61083,0.00120,-0.00511,0.79174,1,0,
06.29 11:26:24:340,1656,0.09422,-0.06236,9.81348,0.00000,0.00000,-2525397680142175760794213416960.00000,0.38667,-0.12276,-0.59953,-0.37985,104.70010,-0.46580,0.61084,0.00119,-0.00511,0.79174,1,0,
06.29 11:26:24:350,1657,0.07896,-0.08534,9.82218,0.00000,0.00000,-2525397680142175760794213416960.00000,0.38816,-0.12228,-0.59852,-0.37925,104.70090,-0.46654,0.61083,0.00120,-0.00511,0.79174,1,0,
06.29 11:26:24:360,1658,0.09955,-0.06908,9.81698,0.00000,0.00000,-2525397680142175760794213416960.00000,0.38717,-0.12076,-0.59952,-0.37952,104.69989,-0.46721,0.61084,0.00121,-0.00511,0.79174,1,0,
06.29 11:26:24:371,1659,0.09123,-0.07295,9.83114,0.00000,0.00000,-2525397680142175760794213416960.00000,0.38766,-0.12128,-0.59852,-0.38040,104.69404,-0.46597,0.61088,0.00119,-0.00511,0.79171,1,0,
06.29 11:26:24:380,1660,0.08952,-0.05635,9.82597,0.00000,0.00000,-2525397680142175760794213416960.00000,0.38916,-0.12075,-0.60000,-0.37986,104.69450,-0.46599,0.61088,0.00119,-0.00511,0.79171,1,0,
06.29 11:26:24:390,1661,0.06043,-0.06084,9.83207,0.00000,0.00000,-2525397680142175760794213416960.00000,0.38867,-0.12122,-0.60150,-0.38106,104.69659,-0.46655,0.61086,0.00119,-0.00512,0.79172,1,0,
06.29 11:26:24:400,1662,0.08558,-0.06163,9.82437,0.00000,0.00000,-2525397680142175760794213416960.00000,0.38966,-0.12472,-0.60100,-0.38147,104.69942,-0.46620,0.61084,0.00119,-0.00512,0.79173,1,0,
06.29 11:26:24:410,1663,0.07607,-0.08886,9.80976,0.00000,0.00000,-2525397680142175760794213416960.00000,0.38867,-0.12223,-0.60100,-0.38189,104.69917,-0.46596,0.61084,0.00118,-0.00512,0.79173,1,0,
06.29 11:26:24:420,1664,0.09758,-0.07520,9.81884,0.00000,0.00000,-2525397680142175760794213416960.00000,0.38915,-0.12375,-0.59951,-0.38165,104.69810,-0.46584,0.61085,0.00118,-0.00512,0.79173,1,0,
06.29 11:26:24:430,1665,0.08018,-0.06735,9.80826,0.00000,0.00000,-2525397680142175760794213416960.00000,0.38816,-0.12027,-0.59901,-0.38074,104.69849,-0.46561,0.61085,0.00119,-0.00511,0.79173,1,0,
06.29 11:26:24:441,1666,0.07314,-0.06539,9.83083,0.00000,0.00000,-2525397680142175760794213416960.00000,0.38617,-0.12377,-0.59904,-0.38026,104.69690,-0.46578,0.61086,0.00119,-0.00511,0.79172,1,0,
06.29 11:26:24:451,1667,0.08861,-0.07536,9.81724,0.00000,0.00000,-2525397680142175760794213416960.00000,0.38815,-0.11979,-0.59801,-0.37995,104.69372,-0.46498,0.61088,0.00119,-0.00510,0.79170,1,0,
06.29 11:26:24:459,1668,0.07013,-0.08546,9.82361,0.00000,0.00000,-2525397680142175760794213416960.00000,0.38865,-0.12029,-0.59801,-0.38169,104.69392,-0.46473,0.61088,0.00118,-0.00511,0.79171,1,0,
06.29 11:26:24:471,1669,0.07957,-0.07772,9.81703,0.00000,0.00000,-2525397680142175760794213416960.00000,0.38717,-0.12125,-0.60002,-0.38354,104.69617,-0.46356,0.61087,0.00116,-0.00512,0.79172,1,0,
06.29 11:26:24:480,1670,0.10666,-0.07303,9.81937,0.00000,0.00000,-2525397680142175760794213416960.00000,0.38767,-0.12273,-0.60101,-0.38317,104.69676,-0.46357,0.61086,0.00116,-0.00512,0.79172,1,0,
06.29 11:26:24:490,1671,0.08684,-0.08305,9.80282,0.00000,0.00000,-2525397680142175760794213416960.00000,0.38767,-0.12275,-0.60002,-0.38248,104.69357,-0.46415,0.61088,0.00117,-0.00512,0.79170,1,0,
06.29 11:26:24:500,1672,0.08334,-0.07664,9.82576,0.00000,0.00000,-2525397680142175760794213416960.00000,0.38967,-0.12319,-0.60249,-0.38184,104.69550,-0.46411,0.61087,0.00117,-0.00511,0.79171,1,0,
06.29 11:26:24:510,1673,0.08937,-0.06819,9.81112,0.00000,0.00000,-2525397680142175760794213416960.00000,0.38915,-0.12227,-0.59901,-0.38245,104.69681,-0.46338,0.61086,0.00116,-0.00511,0.79172,1,0,
06.29 11:26:24:521,1674,0.10450,-0.06549,9.82015,0.00000,0.00000,-2525397680142175760794213416960.00000,0.38965,-0.12126,-0.59950,-0.38316,104.69540,-0.46283,0.61087,0.00116,-0.00511,0.79171,1,0,
06.29 11:26:24:529,1675,0.07945,-0.07719,9.82201,0.00000,0.00000,-2525397680142175760794213416960.00000,0.38916,-0.12073,-0.60099,-0.38267,104.69843,-0.46286,0.61085,0.00116,-0.00511,0.79173,1,0,
06.29 11:26:24:541,1676,0.08435,-0.07016,9.81956,0.00000,0.00000,-2525397680142175760794213416960.00000,0.38766,-0.12229,-0.59803,-0.38286,104.69936,-0.46316,0.61084,0.00116,-0.00511,0.79173,1,0,
06.29 11:26:24:550,1677,0.07357,-0.05665,9.83558,0.00000,0.00000,-2525397680142175760794213416960.00000,0.38816,-0.12278,-0.59852,-0.38357,104.69899,-0.46344,0.61085,0.00116,-0.00512,0.79173,1,0,
06.29 11:26:24:560,1678,0.07905,-0.07539,9.82735,0.00000,0.00000,-2525397680142175760794213416960.00000,0.38915,-0.12226,-0.59951,-0.38375,104.69903,-0.46420,0.61085,0.00116,-0.00513,0.79173,1,0,
06.29 11:26:24:570,1679,0.09292,-0.07785,9.82535,0.00000,0.00000,-2525397680142175760794213416960.00000,0.38765,-0.12230,-0.59753,-0.38299,104.69765,-0.46369,0.61085,0.00116,-0.00512,0.79173,1,0,
06.29 11:26:24:580,1680,0.08543,-0.06222,9.82325,0.00000,0.00000,-2525397680142175760794213416960.00000,0.38766,-0.12076,-0.59951,-0.38276,104.69755,-0.46337,0.61086,0.00116,-0.00511,0.79172,1,0,
06.29 11:26:24:591,1681,0.08086,-0.08742,9.82461,0.00000,0.00000,-2525397680142175760794213416960.00000,0.38864,-0.12032,-0.59652,-0.38367,104.69716,-0.46334,0.61086,0.00116,-0.00512,0.79172,1,0,
06.29 11:26:24:600,1682,0.10019,-0.06937,9.82780,0.00000,0.00000,-2525397680142175760794213416960.00000,0.38865,-0.12229,-0.59802,-0.38350,104.69888,-0.46207,0.61085,0.00115,-0.00511,0.79173,1,0,
06.29 11:26:24:610,1683,0.07357,-0.08195,9.82795,0.00000,0.00000,-2525397680142175760794213416960.00000,0.38817,-0.12224,-0.60051,-0.38360,104.70078,-0.46138,0.61083,0.00114,-0.00511,0.79174,1,0,
06.29 11:26:24:620,1684,0.08139,-0.05946,9.83057,0.00000,0.00000,-2525397680142175760794213416960.00000,0.38965,-0.12126,-0.59950,-0.38260,104.70037,-0.46042,0.61084,0.00114,-0.00510,0.79174,1,0,
06.29 11:26:24:630,1685,0.06705,-0.06210,9.83219,0.00000,0.00000,-2525397680142175760794213416960.00000,0.38717,-0.12324,-0.60052,-0.38250,104.70699,-0.45900,0.61079,0.00113,-0.00509,0.79178,1,0,
06.29 11:26:24:640,1686,0.07914,-0.06035,9.82447,0.00000,0.00000,-2525397680142175760794213416960.00000,0.38767,-0.12174,-0.60051,-0.38087,104.70697,-0.45892,0.61079,0.00114,-0.00508,0.79178,1,0,
06.29 11:26:24:650,1687,0.08261,-0.06220,9.82275,0.00000,0.00000,-2525397680142175760794213416960.00000,0.38865,-0.12280,-0.59752,-0.38174,104.70522,-0.45872,0.61080,0.00113,-0.00508,0.79177,1,0,
06.29 11:26:24:660,1688,0.08016,-0.06960,9.83312,0.00000,0.00000,-2525397680142175760794213416960.00000,0.38818,-0.12321,-0.60201,-0.38255,104.70534,-0.45805,0.61080,0.00113,-0.00508,0.79177,1,0,
06.29 11:26:24:671,1689,0.07313,-0.07211,9.79598,0.00000,0.00000,-2525397680142175760794213416960.00000,0.39014,-0.12129,-0.59750,-0.38301,104.70734,-0.45772,0.61079,0.00112,-0.00509,0.79178,1,0,
06.29 11:26:24:680,1690,0.08864,-0.07680,9.81960,0.00000,0.00000,-2525397680142175760794213416960.00000,0.38816,-0.12226,-0.59951,-0.38192,104.70757,-0.45744,0.61079,0.00113,-0.00508,0.79178,1,0,
06.29 11:26:24:690,1691,0.08974,-0.08641,9.82113,0.00000,0.00000,-2525397680142175760794213416960.00000,0.38816,-0.12077,-0.59901,-0.38116,104.70739,-0.45847,0.61079,0.00114,-0.00508,0.79178,1,0,
06.29 11:26:24:700,1692,0.06937,-0.07623,9.81758,0.00000,0.00000,-2525397680142175760794213416960.00000,0.38966,-0.12373,-0.60050,-0.38085,104.70908,-0.45889,0.61078,0.00114,-0.00508,0.79179,1,0,
06.29 11:26:24:710,1693,0.07498,-0.07012,9.82170,0.00000,0.00000,-2525397680142175760794213416960.00000,0.38915,-0.12278,-0.59851,-0.38069,104.71010,-0.45811,0.61077,0.00114,-0.00507,0.79179,1,0,
06.29 11:26:24:720,1694,0.08656,-0.06882,9.82442,0.00000,0.00000,-2525397680142175760794213416960.00000,0.38916,-0.12323,-0.60051,-0.37959,104.71072,-0.45825,0.61076,0.00114,-0.00507,0.79180,1,0,
06.29 11:26:24:730,1695,0.06581,-0.08280,9.81362,0.00000,0.00000,-2525397680142175760794213416960.00000,0.38768,-0.12172,-0.60151,-0.38063,104.70897,-0.45873,0.61078,0.00114,-0.00508,0.79179,1,0,
06.29 11:26:24:740,1696,0.08797,-0.07193,9.82430,0.00000,0.00000,-2525397680142175760794213416960.00000,0.38964,-0.12278,-0.59801,-0.38111,104.70831,-0.45858,0.61078,0.00114,-0.00508,0.79178,1,0,
06.29 11:26:24:750,1697,0.07074,-0.07957,9.81796,0.00000,0.00000,-2525397680142175760794213416960.00000,0.38817,-0.12423,-0.60101,-0.38065,104.70941,-0.45913,0.61077,0.00114,-0.00508,0.79179,1,0,
06.29 11:26:24:760,1698,0.08536,-0.07331,9.81648,0.00000,0.00000,-2525397680142175760794213416960.00000,0.38716,-0.12430,-0.59754,-0.38018,104.70731,-0.45951,0.61079,0.00115,-0.00508,0.79178,1,0,
06.29 11:26:24:770,1699,0.08605,-0.07688,9.82339,0.00000,0.00000,-2525397680142175760794213416960.00000,0.38916,-0.12075,-0.60000,-0.37995,104.70838,-0.45975,0.61078,0.00115,-0.00508,0.79178,1,0,
06.29 11:26:24:780,1700,0.09130,-0.07930,9.81550,0.00000,0.00000,-2525397680142175760794213416960.00000,0.38618,-0.12075,-0.60052,-0.37925,104.71090,-0.45932,0.61076,0.00115,-0.00507,0.79180,1,0,
06.29 11:26:24:790,1701,0.09461,-0.06056,9.82294,0.00000,0.00000,-2525397680142175760794213416960.00000,0.39064,-0.12376,-0.59900,-0.37993,104.70573,-0.46033,0.61080,0.00116,-0.00508,0.79177,1,0,
06.29 11:26:24:800,1702,0.09126,-0.07278,9.82175,0.00000,0.00000,-2525397680142175760794213416960.00000,0.38667,-0.12276,-0.59953,-0.38054,104.70694,-0.45945,0.61079,0.00115,-0.00508,0.79177,1,0,
06.29 11:26:24:811,1703,0.09127,-0.07211,9.81898,0.00000,0.00000,-2525397680142175760794213416960.00000,0.38667,-0.12128,-0.59853,-0.38089,104.70326,-0.45908,0.61082,0.00114,-0.00508,0.79176,1,0,
06.29 11:26:24:820,1704,0.08349,-0.07978,9.80852,0.00000,0.00000,-2525397680142175760794213416960.00000,0.39015,-0.12224,-0.60000,-0.37978,104.70492,-0.45965,0.61080,0.00115,-0.00507,0.79176,1,0,
06.29 11:26:24:829,1705,0.09168,-0.09012,9.82926,0.00000,0.00000,-2525397680142175760794213416960.00000,0.38718,-0.12172,-0.60151,-0.38007,104.70502,-0.45977,0.61080,0.00115,-0.00508,0.79176,1,0,
06.29 11:26:24:840,1706,0.09124,-0.05727,9.81763,0.00000,0.00000,-2525397680142175760794213416960.00000,0.38817,-0.12272,-0.60151,-0.37965,104.70158,-0.45993,0.61083,0.00115,-0.00507,0.79175,1,0,
06.29 11:26:24:850,1707,0.07941,-0.06660,9.82328,0.00000,0.00000,-2525397680142175760794213416960.00000,0.38865,-0.12179,-0.59802,-0.37990,104.70044,-0.46030,0.61084,0.00116,-0.00508,0.79174,1,0,
06.29 11:26:24:860,1708,0.08048,-0.05400,9.81031,0.00000,0.00000,-2525397680142175760794213416960.00000,0.38617,-0.12227,-0.59903,-0.38038,104.69858,-0.45971,0.61085,0.00115,-0.00508,0.79173,1,0,
06.29 11:26:24:870,1709,0.09727,-0.07277,9.82111,0.00000,0.00000,-2525397680142175760794213416960.00000,0.39114,-0.12126,-0.59899,-0.38033,104.69621,-0.46023,0.61086,0.00115,-0.00508,0.79172,1,0,
06.29 11:26:24:879,1710,0.08927,-0.07200,9.82607,0.00000,0.00000,-2525397680142175760794213416960.00000,0.38718,-0.12321,-0.60201,-0.38100,104.69386,-0.46056,0.61088,0.00115,-0.00509,0.79171,1,0,
06.29 11:26:24:890,1711,0.07034,-0.06981,9.82361,0.00000,0.00000,-2525397680142175760794213416960.00000,0.38866,-0.12227,-0.59901,-0.38064,104.69238,-0.45992,0.61089,0.00115,-0.00508,0.79170,1,0,
06.29 11:26:24:901,1712,0.10260,-0.06804,9.82046,0.00000,0.00000,-2525397680142175760794213416960.00000,0.38966,-0.12223,-0.60050,-0.38034,104.69252,-0.45985,0.61089,0.00115,-0.00508,0.79170,1,0,
06.29 11:26:24:910,1713,0.07049,-0.08907,9.82073,0.00000,0.00000,-2525397680142175760794213416960.00000,0.38618,-0.12127,-0.59953,-0.38142,104.69014,-0.45949,0.61091,0.00114,-0.00508,0.79169,1,0,
06.29 11:26:24:920,1714,0.08357,-0.04719,9.81422,0.00000,0.00000,-2525397680142175760794213416960.00000,0.38817,-0.12224,-0.60051,-0.38171,104.69106,-0.45933,0.61090,0.00114,-0.00509,0.79169,1,0,
06.29 11:26:24:930,1715,0.08153,-0.05954,9.82709,0.00000,0.00000,-2525397680142175760794213416960.00000,0.38817,-0.12324,-0.60051,-0.38204,104.69257,-0.45938,0.61089,0.00114,-0.00509,0.79170,1,0,
06.29 11:26:24:940,1716,0.09013,-0.06332,9.82654,0.00000,0.00000,-2525397680142175760794213416960.00000,0.38815,-0.12179,-0.59802,-0.38326,104.69434,-0.45965,0.61088,0.00113,-0.00510,0.79171,1,0,
06.29 11:26:24:951,1717,0.05385,-0.07104,9.82494,0.00000,0.00000,-2525397680142175760794213416960.00000,0.38965,-0.12125,-0.60000,-0.38495,104.69416,-0.45969,0.61088,0.00112,-0.00511,0.79171,1,0,
06.29 11:26:24:960,1718,0.08703,-0.06766,9.81879,0.00000,0.00000,-2525397680142175760794213416960.00000,0.38817,-0.12221,-0.60200,-0.38602,104.69737,-0.45949,0.61086,0.00112,-0.00512,0.79172,1,0,
06.29 11:26:24:971,1719,0.07807,-0.05870,9.80921,0.00000,0.00000,-2525397680142175760794213416960.00000,0.38964,-0.12380,-0.59702,-0.38586,104.69554,-0.45916,0.61087,0.00112,-0.00511,0.79171,1,0,
06.29 11:26:24:980,1720,0.08494,-0.08488,9.82640,0.00000,0.00000,-2525397680142175760794213416960.00000,0.38766,-0.12330,-0.59753,-0.38612,104.68983,-0.45816,0.61091,0.00111,-0.00511,0.79168,1,0,
06.29 11:26:24:990,1721,0.07852,-0.06391,9.81221,0.00000,0.00000,-2525397680142175760794213416960.00000,0.38816,-0.12227,-0.59902,-0.38681,104.69191,-0.45752,0.61089,0.00110,-0.00511,0.79169,1,0,
06.29 11:26:25:000,1722,0.05212,-0.07904,9.82356,0.00000,0.00000,-2525397680142175760794213416960.00000,0.38865,-0.12278,-0.59852,-0.38668,104.69183,-0.45782,0.61090,0.00110,-0.00511,0.79169,1,0,
06.29 11:26:25:010,1723,0.08079,-0.05292,9.80952,0.00000,0.00000,-2525397680142175760794213416960.00000,0.38766,-0.12079,-0.59802,-0.38721,104.69092,-0.45825,0.61090,0.00110,-0.00512,0.79169,1,0,
06.29 11:26:25:020,1724,0.07045,-0.08467,9.81991,0.00000,0.00000,-2525397680142175760794213416960.00000,0.39014,-0.12329,-0.59751,-0.38702,104.69051,-0.45907,0.61090,0.00111,-0.00512,0.79169,1,0,
06.29 11:26:25:030,1725,0.07351,-0.06607,9.80959,0.00000,0.00000,-2525397680142175760794213416960.00000,0.38866,-0.12473,-0.60051,-0.38610,104.69279,-0.45899,0.61089,0.00111,-0.00511,0.79170,1,0,
06.29 11:26:25:040,1726,0.07495,-0.06015,9.81784,0.00000,0.00000,-2525397680142175760794213416960.00000,0.38867,-0.12123,-0.60100,-0.38632,104.69151,-0.45832,0.61090,0.00111,-0.00511,0.79169,1,0,
06.29 11:26:25:051,1727,0.07603,-0.06285,9.81431,0.00000,0.00000,-2525397680142175760794213416960.00000,0.38718,-0.12322,-0.60152,-0.38649,104.68999,-0.45781,0.61091,0.00110,-0.00511,0.79168,1,0,
06.29 11:26:25:060,1728,0.07793,-0.05269,9.82087,0.00000,0.00000,-2525397680142175760794213416960.00000,0.38716,-0.12379,-0.59803,-0.38630,104.68679,-0.45870,0.61093,0.00111,-0.00511,0.79167,1,0,
06.29 11:26:25:070,1729,0.08289,-0.07525,9.82981,0.00000,0.00000,-2525397680142175760794213416960.00000,0.38816,-0.12327,-0.59902,-0.38560,104.68635,-0.45890,0.61093,0.00111,-0.00511,0.79167,1,0,
06.29 11:26:25:079,1730,0.10543,-0.05366,9.81422,0.00000,0.00000,-2525397680142175760794213416960.00000,0.38817,-0.12121,-0.60200,-0.38500,104.68517,-0.45877,0.61094,0.00112,-0.00511,0.79166,1,0,
06.29 11:26:25:090,1731,0.08531,-0.08182,9.83389,0.00000,0.00000,-2525397680142175760794213416960.00000,0.38867,-0.12173,-0.60100,-0.38438,104.68456,-0.45849,0.61095,0.00112,-0.00510,0.79166,1,0,
06.29 11:26:25:099,1732,0.08258,-0.05975,9.81305,0.00000,0.00000,-2525397680142175760794213416960.00000,0.38867,-0.12123,-0.60100,-0.38411,104.68311,-0.45863,0.61096,0.00112,-0.00510,0.79165,1,0,
06.29 11:26:25:110,1733,0.05724,-0.07281,9.81903,0.00000,0.00000,-2525397680142175760794213416960.00000,0.38767,-0.12173,-0.60101,-0.38323,104.68520,-0.45938,0.61094,0.00113,-0.00510,0.79166,1,0,
06.29 11:26:25:120,1734,0.09566,-0.06714,9.81593,0.00000,0.00000,-2525397680142175760794213416960.00000,0.39015,-0.12374,-0.60000,-0.38361,104.69239,-0.45961,0.61089,0.00113,-0.00510,0.79170,1,0,
06.29 11:26:25:131,1735,0.09519,-0.08457,9.81987,0.00000,0.00000,-2525397680142175760794213416960.00000,0.38816,-0.12176,-0.59951,-0.38287,104.69225,-0.45884,0.61089,0.00113,-0.00509,0.79170,1,0,
06.29 11:26:25:140,1736,0.07953,-0.05844,9.82795,0.00000,0.00000,-2525397680142175760794213416960.00000,0.38866,-0.12025,-0.60000,-0.38372,104.69059,-0.45780,0.61090,0.00112,-0.00509,0.79169,1,0,
06.29 11:26:25:150,1737,0.07238,-0.06419,9.82804,0.00000,0.00000,-2525397680142175760794213416960.00000,0.38667,-0.11977,-0.59952,-0.38513,104.68748,-0.45821,0.61093,0.00111,-0.00510,0.79167,1,0,
06.29 11:26:25:159,1738,0.08712,-0.09020,9.83339,0.00000,0.00000,-2525397680142175760794213416960.00000,0.38718,-0.12272,-0.60151,-0.38509,104.69465,-0.45791,0.61088,0.00111,-0.00510,0.79171,1,0,
06.29 11:26:25:170,1739,0.08727,-0.05711,9.80730,0.00000,0.00000,-2525397680142175760794213416960.00000,0.38915,-0.12426,-0.59902,-0.38462,104.69273,-0.45861,0.61089,0.00112,-0.00510,0.79170,1,0,
06.29 11:26:25:180,1740,0.08111,-0.06332,9.81526,0.00000,0.00000,-2525397680142175760794213416960.00000,0.38718,-0.12223,-0.60102,-0.38439,104.69279,-0.45991,0.61089,0.00113,-0.00511,0.79170,1,0,
06.29 11:26:25:190,1741,0.06928,-0.07978,9.81138,0.00000,0.00000,-2525397680142175760794213416960.00000,0.38865,-0.12378,-0.59852,-0.38569,104.69429,-0.46114,0.61088,0.00113,-0.00512,0.79171,1,0,
06.29 11:26:25:201,1742,0.06960,-0.07121,9.81405,0.00000,0.00000,-2525397680142175760794213416960.00000,0.38866,-0.12324,-0.60051,-0.38644,104.69790,-0.46186,0.61085,0.00113,-0.00513,0.79173,1,0,
06.29 11:26:25:210,1743,0.08424,-0.07598,9.80845,0.00000,0.00000,-2525397680142175760794213416960.00000,0.38915,-0.11876,-0.59949,-0.38666,104.69719,-0.46166,0.61086,0.00113,-0.00513,0.79172,1,0,
06.29 11:26:25:220,1744,0.07082,-0.06683,9.81937,0.00000,0.00000,-2525397680142175760794213416960.00000,0.38767,-0.12225,-0.60002,-0.38680,104.70218,-0.46225,0.61082,0.00113,-0.00514,0.79175,1,0,
06.29 11:26:25:230,1745,0.10131,-0.07383,9.80985,0.00000,0.00000,-2525397680142175760794213416960.00000,0.38767,-0.12223,-0.60101,-0.38726,104.69991,-0.46140,0.61084,0.00112,-0.00514,0.79174,1,0,
06.29 11:26:25:240,1746,0.07632,-0.06394,9.82819,0.00000,0.00000,-2525397680142175760794213416960.00000,0.38916,-0.12274,-0.60001,-0.38638,104.69666,-0.46175,0.61086,0.00113,-0.00513,0.79172,1,0,
06.29 11:26:25:250,1747,0.08203,-0.07060,9.80857,0.00000,0.00000,-2525397680142175760794213416960.00000,0.38716,-0.12380,-0.59754,-0.38594,104.69802,-0.46268,0.61085,0.00114,-0.00513,0.79173,1,0,
06.29 11:26:25:260,1748,0.07391,-0.07796,9.81918,0.00000,0.00000,-2525397680142175760794213416960.00000,0.38815,-0.12230,-0.59752,-0.38523,104.69874,-0.46240,0.61085,0.00114,-0.00513,0.79173,1,0,
06.29 11:26:25:270,1749,0.06988,-0.05987,9.82168,0.00000,0.00000,-2525397680142175760794213416960.00000,0.39065,-0.12271,-0.60149,-0.38439,104.69794,-0.46205,0.61085,0.00114,-0.00512,0.79173,1,0,
06.29 11:26:25:280,1750,0.07023,-0.05154,9.81779,0.00000,0.00000,-2525397680142175760794213416960.00000,0.38767,-0.12175,-0.60001,-0.38481,104.69876,-0.46319,0.61085,0.00115,-0.00513,0.79173,1,0,
06.29 11:26:25:290,1751,0.10590,-0.08075,9.82328,0.00000,0.00000,-2525397680142175760794213416960.00000,0.38965,-0.12326,-0.59901,-0.38488,104.69817,-0.46255,0.61085,0.00114,-0.00512,0.79173,1,0,
06.29 11:26:25:300,1752,0.09015,-0.07086,9.82003,0.00000,0.00000,-2525397680142175760794213416960.00000,0.38716,-0.12279,-0.59803,-0.38432,104.69611,-0.46302,0.61087,0.00115,-0.00512,0.79172,1,0,
06.29 11:26:25:309,1753,0.06653,-0.06786,9.81765,0.00000,0.00000,-2525397680142175760794213416960.00000,0.38865,-0.12331,-0.59703,-0.38404,104.69594,-0.46237,0.61087,0.00115,-0.00512,0.79172,1,0,
06.29 11:26:25:320,1754,0.08920,-0.07466,9.81772,0.00000,0.00000,-2525397680142175760794213416960.00000,0.39065,-0.12174,-0.59999,-0.38410,104.69595,-0.46318,0.61087,0.00115,-0.00512,0.79172,1,0,
06.29 11:26:25:330,1755,0.08951,-0.08706,9.81705,0.00000,0.00000,-2525397680142175760794213416960.00000,0.38618,-0.12323,-0.60103,-0.38391,104.69501,-0.46343,0.61087,0.00116,-0.00512,0.79171,1,0,
06.29 11:26:25:340,1756,0.09138,-0.06436,9.83009,0.00000,0.00000,-2525397680142175760794213416960.00000,0.38815,-0.12129,-0.59802,-0.38406,104.69422,-0.46418,0.61088,0.00116,-0.00513,0.79171,1,0,
06.29 11:26:25:350,1757,0.06547,-0.06534,9.81560,0.00000,0.00000,-2525397680142175760794213416960.00000,0.38518,-0.12330,-0.59805,-0.38272,104.69432,-0.46345,0.61088,0.00116,-0.00511,0.79171,1,0,
06.29 11:26:25:360,1758,0.08741,-0.06147,9.82938,0.00000,0.00000,-2525397680142175760794213416960.00000,0.38715,-0.12183,-0.59604,-0.38143,104.69530,-0.46295,0.61087,0.00117,-0.00510,0.79171,1,0,
06.29 11:26:25:370,1759,0.09402,-0.08652,9.82180,0.00000,0.00000,-2525397680142175760794213416960.00000,0.38916,-0.12123,-0.60100,-0.38063,104.69480,-0.46345,0.61087,0.00117,-0.00510,0.79171,1,0,
06.29 11:26:25:380,1760,0.06345,-0.07264,9.82747,0.00000,0.00000,-2525397680142175760794213416960.00000,0.38816,-0.12175,-0.60001,-0.37903,104.69256,-0.46330,0.61089,0.00118,-0.00509,0.79170,1,0,
06.29 11:26:25:391,1761,0.05528,-0.06707,9.82030,0.00000,0.00000,-2525397680142175760794213416960.00000,0.38915,-0.12228,-0.59851,-0.37890,104.69612,-0.46328,0.61087,0.00118,-0.00509,0.79172,1,0,
06.29 11:26:25:400,1762,0.08880,-0.07633,9.83033,0.00000,0.00000,-2525397680142175760794213416960.00000,0.38965,-0.12226,-0.59900,-0.37879,104.69633,-0.46330,0.61086,0.00118,-0.00509,0.79172,1,0,
06.29 11:26:25:410,1763,0.08289,-0.07208,9.81293,0.00000,0.00000,-2525397680142175760794213416960.00000,0.38815,-0.12279,-0.59802,-0.37958,104.69267,-0.46328,0.61089,0.00118,-0.00509,0.79170,1,0,
06.29 11:26:25:420,1764,0.07571,-0.05659,9.81081,0.00000,0.00000,-2525397680142175760794213416960.00000,0.38767,-0.12276,-0.59952,-0.38049,104.69318,-0.46380,0.61089,0.00118,-0.00510,0.79170,1,0,
06.29 11:26:25:431,1765,0.08876,-0.05325,9.81917,0.00000,0.00000,-2525397680142175760794213416960.00000,0.38816,-0.12126,-0.59951,-0.38087,104.69228,-0.46369,0.61089,0.00117,-0.00510,0.79170,1,0,
06.29 11:26:25:440,1766,0.06895,-0.06801,9.82051,0.00000,0.00000,-2525397680142175760794213416960.00000,0.38915,-0.12277,-0.59901,-0.38031,104.69190,-0.46407,0.61089,0.00118,-0.00510,0.79169,1,0,
06.29 11:26:25:450,1767,0.07129,-0.09289,9.81557,0.00000,0.00000,-2525397680142175760794213416960.00000,0.38518,-0.12128,-0.59904,-0.37942,104.69211,-0.46380,0.61089,0.00118,-0.00509,0.79170,1,0,
06.29 11:26:25:460,1768,0.07192,-0.07035,9.81441,0.00000,0.00000,-2525397680142175760794213416960.00000,0.38666,-0.12179,-0.59803,-0.37890,104.68871,-0.46389,0.61092,0.00118,-0.00509,0.79168,1,0,
06.29 11:26:25:470,1769,0.09365,-0.06070,9.81650,0.00000,0.00000,-2525397680142175760794213416960.00000,0.38816,-0.12175,-0.60001,-0.37813,104.68839,-0.46435,0.61092,0.00119,-0.00509,0.79168,1,0,
06.29 11:26:25:480,1770,0.08077,-0.04694,9.81429,0.00000,0.00000,-2525397680142175760794213416960.00000,0.38866,-0.12376,-0.59952,-0.37784,104.68948,-0.46377,0.61091,0.00119,-0.00508,0.79168,1,0,
06.29 11:26:25:490,1771,0.09437,-0.05953,9.82339,0.00000,0.00000,-2525397680142175760794213416960.00000,0.39163,-0.12026,-0.59898,-0.37725,104.69114,-0.46413,0.61090,0.00120,-0.00508,0.79169,1,0,
06.29 11:26:25:500,1772,0.07799,-0.07801,9.83315,0.00000,0.00000,-2525397680142175760794213416960.00000,0.38667,-0.12127,-0.59902,-0.37626,104.69822,-0.46437,0.61085,0.00120,-0.00508,0.79173,1,0,
06.29 11:26:25:509,1773,0.09010,-0.07888,9.81660,0.00000,0.00000,-2525397680142175760794213416960.00000,0.38815,-0.12231,-0.59703,-0.37602,104.69787,-0.46430,0.61085,0.00120,-0.00507,0.79173,1,0,
06.29 11:26:25:520,1774,0.09736,-0.06936,9.80673,0.00000,0.00000,-2525397680142175760794213416960.00000,0.38865,-0.12077,-0.59901,-0.37388,104.69724,-0.46383,0.61086,0.00121,-0.00506,0.79172,1,0,
06.29 11:26:25:531,1775,0.08713,-0.05527,9.82230,0.00000,0.00000,-2525397680142175760794213416960.00000,0.38667,-0.12326,-0.59953,-0.37336,104.70151,-0.46334,0.61083,0.00121,-0.00505,0.79175,1,0,
06.29 11:26:25:539,1776,0.07999,-0.05882,9.82106,0.00000,0.00000,-2525397680142175760794213416960.00000,0.38765,-0.12180,-0.59753,-0.37374,104.70110,-0.46438,0.61083,0.00122,-0.00506,0.79174,1,0,
06.29 11:26:25:550,1777,0.08527,-0.06500,9.82886,0.00000,0.00000,-2525397680142175760794213416960.00000,0.38767,-0.12075,-0.60001,-0.37312,104.69919,-0.46427,0.61084,0.00122,-0.00505,0.79173,1,0,
06.29 11:26:25:561,1778,0.07945,-0.06841,9.81107,0.00000,0.00000,-2525397680142175760794213416960.00000,0.38815,-0.12080,-0.59752,-0.37191,104.69926,-0.46475,0.61084,0.00123,-0.00505,0.79173,1,0,
06.29 11:26:25:570,1779,0.05987,-0.05424,9.81331,0.00000,0.00000,-2525397680142175760794213416960.00000,0.38866,-0.12474,-0.60002,-0.37125,104.69651,-0.46516,0.61086,0.00123,-0.00504,0.79172,1,0,
06.29 11:26:25:580,1780,0.09256,-0.06213,9.83441,0.00000,0.00000,-2525397680142175760794213416960.00000,0.38864,-0.12133,-0.59602,-0.37053,104.69502,-0.46627,0.61087,0.00125,-0.00505,0.79171,1,0,
06.29 11:26:25:591,1781,0.09095,-0.05628,9.82280,0.00000,0.00000,-2525397680142175760794213416960.00000,0.38865,-0.12029,-0.59801,-0.37117,104.69591,-0.46604,0.61087,0.00124,-0.00505,0.79172,1,0,
06.29 11:26:25:600,1782,0.07474,-0.07181,9.82351,0.00000,0.00000,-2525397680142175760794213416960.00000,0.38815,-0.12279,-0.59802,-0.37086,104.69371,-0.46522,0.61088,0.00124,-0.00504,0.79170,1,0,
06.29 11:26:25:612,1783,0.06813,-0.07152,9.81906,0.00000,0.00000,-2525397680142175760794213416960.00000,0.38765,-0.12381,-0.59704,-0.37141,104.69334,-0.46540,0.61088,0.00124,-0.00505,0.79170,1,0,
06.29 11:26:25:620,1784,0.08248,-0.05270,9.81605,0.00000,0.00000,-2525397680142175760794213416960.00000,0.38965,-0.12127,-0.59900,-0.37228,104.68691,-0.46459,0.61093,0.00122,-0.00505,0.79167,1,0,
06.29 11:26:25:630,1785,0.07547,-0.08720,9.82089,0.00000,0.00000,-2525397680142175760794213416960.00000,0.38668,-0.12024,-0.60051,-0.37211,104.69100,-0.46467,0.61090,0.00123,-0.00505,0.79169,1,0,
06.29 11:26:25:640,1786,0.07463,-0.05647,9.83608,0.00000,0.00000,-2525397680142175760794213416960.00000,0.38816,-0.12078,-0.59851,-0.37105,104.69148,-0.46496,0.61090,0.00123,-0.00504,0.79169,1,0,
06.29 11:26:25:650,1787,0.09390,-0.07826,9.81648,0.00000,0.00000,-2525397680142175760794213416960.00000,0.38816,-0.12327,-0.59902,-0.37252,104.69463,-0.46444,0.61088,0.00122,-0.00505,0.79171,1,0,
06.29 11:26:25:661,1788,0.06567,-0.06363,9.83231,0.00000,0.00000,-2525397680142175760794213416960.00000,0.38864,-0.11981,-0.59701,-0.37268,104.69382,-0.46468,0.61088,0.00122,-0.00505,0.79171,1,0,
06.29 11:26:25:670,1789,0.07627,-0.07186,9.81331,0.00000,0.00000,-2525397680142175760794213416960.00000,0.39064,-0.12126,-0.59899,-0.37312,104.70055,-0.46420,0.61083,0.00122,-0.00505,0.79174,1,0,
06.29 11:26:25:680,1790,0.10389,-0.05913,9.81252,0.00000,0.00000,-2525397680142175760794213416960.00000,0.38717,-0.12175,-0.60002,-0.37329,104.70137,-0.46391,0.61083,0.00122,-0.00505,0.79175,1,0,
06.29 11:26:25:690,1791,0.08437,-0.07101,9.80330,0.00000,0.00000,-2525397680142175760794213416960.00000,0.39015,-0.12073,-0.60049,-0.37360,104.70094,-0.46371,0.61083,0.00121,-0.00505,0.79174,1,0,
06.29 11:26:25:700,1792,0.08602,-0.07103,9.82757,0.00000,0.00000,-2525397680142175760794213416960.00000,0.38915,-0.12179,-0.59801,-0.37293,104.70103,-0.46339,0.61083,0.00121,-0.00505,0.79174,1,0,
06.29 11:26:25:710,1793,0.06941,-0.06525,9.81600,0.00000,0.00000,-2525397680142175760794213416960.00000,0.38866,-0.12075,-0.60000,-0.37205,104.70135,-0.46304,0.61083,0.00122,-0.00504,0.79175,1,0,
06.29 11:26:25:720,1794,0.07284,-0.04886,9.82778,0.00000,0.00000,-2525397680142175760794213416960.00000,0.38866,-0.12175,-0.60001,-0.37019,104.70525,-0.46287,0.61080,0.00123,-0.00503,0.79177,1,0,
06.29 11:26:25:731,1795,0.07407,-0.06138,9.81672,0.00000,0.00000,-2525397680142175760794213416960.00000,0.38816,-0.12027,-0.59901,-0.36990,104.70444,-0.46247,0.61081,0.00122,-0.00502,0.79176,1,0,
06.29 11:26:25:740,1796,0.09215,-0.07227,9.83041,0.00000,0.00000,-2525397680142175760794213416960.00000,0.38866,-0.12227,-0.59901,-0.36975,104.70453,-0.46101,0.61081,0.00121,-0.00501,0.79176,1,0,
06.29 11:26:25:751,1797,0.07618,-0.06521,9.82389,0.00000,0.00000,-2525397680142175760794213416960.00000,0.38717,-0.12174,-0.60052,-0.36940,104.70440,-0.46154,0.61081,0.00122,-0.00501,0.79176,1,0,
06.29 11:26:25:760,1798,0.07433,-0.08860,9.81383,0.00000,0.00000,-2525397680142175760794213416960.00000,0.38768,-0.12072,-0.60150,-0.36885,104.70651,-0.46170,0.61079,0.00122,-0.00501,0.79177,1,0,
06.29 11:26:25:771,1799,0.08123,-0.06645,9.82320,0.00000,0.00000,-2525397680142175760794213416960.00000,0.38817,-0.12273,-0.60101,-0.36872,104.71154,-0.46223,0.61076,0.00123,-0.00501,0.79180,1,0,
06.29 11:26:25:780,1800,0.06928,-0.07845,9.83336,0.00000,0.00000,-2525397680142175760794213416960.00000,0.38717,-0.12425,-0.60003,-0.36859,104.71022,-0.46306,0.61077,0.00124,-0.00501,0.79179,1,0,
06.29 11:26:25:790,1801,0.07244,-0.07189,9.81777,0.00000,0.00000,-2525397680142175760794213416960.00000,0.38965,-0.12225,-0.59950,-0.38996,104.71812,-0.46744,0.61071,0.00115,-0.00519,0.79183,1,0,
06.29 11:26:25:801,1802,0.07471,-0.07070,9.81484,0.00000,0.00000,-2525397680142175760794213416960.00000,0.38667,-0.12078,-0.59853,-0.38836,104.71855,-0.46675,0.61071,0.00116,-0.00517,0.79184,1,0,
06.29 11:26:25:810,1803,0.07982,-0.05196,9.82175,0.00000,0.00000,-2525397680142175760794213416960.00000,0.38715,-0.12182,-0.59653,-0.38844,104.72107,-0.46557,0.61069,0.00115,-0.00517,0.79185,1,0,
06.29 11:26:25:820,1804,0.09109,-0.05093,9.81796,0.00000,0.00000,-2525397680142175760794213416960.00000,0.38667,-0.12178,-0.59853,-0.38838,104.72137,-0.46500,0.61069,0.00114,-0.00516,0.79185,1,0,
06.29 11:26:25:830,1805,0.08592,-0.08726,9.83193,0.00000,0.00000,-2525397680142175760794213416960.00000,0.38766,-0.12278,-0.59852,-0.38889,104.72164,-0.46513,0.61069,0.00114,-0.00517,0.79185,1,0,
06.29 11:26:25:840,1806,0.09100,-0.06358,9.80597,0.00000,0.00000,-2525397680142175760794213416960.00000,0.38916,-0.12225,-0.60000,-0.38713,104.72123,-0.46469,0.61069,0.00115,-0.00515,0.79185,1,0,
06.29 11:26:25:850,1807,0.07531,-0.05649,9.81295,0.00000,0.00000,-2525397680142175760794213416960.00000,0.38717,-0.12475,-0.60003,-0.38664,104.71949,-0.46546,0.61070,0.00116,-0.00515,0.79184,1,0,
06.29 11:26:25:860,1808,0.07432,-0.06854,9.82482,0.00000,0.00000,-2525397680142175760794213416960.00000,0.38717,-0.12277,-0.59903,-0.38589,104.71470,-0.46511,0.61074,0.00116,-0.00515,0.79182,1,0,
06.29 11:26:25:870,1809,0.07395,-0.08525,9.81395,0.00000,0.00000,-2525397680142175760794213416960.00000,0.38964,-0.12279,-0.59751,-0.38517,104.71319,-0.46503,0.61075,0.00116,-0.00514,0.79181,1,0,
06.29 11:26:25:880,1810,0.07740,-0.09667,9.82855,0.00000,0.00000,-2525397680142175760794213416960.00000,0.38817,-0.12373,-0.60101,-0.38551,104.71445,-0.46533,0.61074,0.00116,-0.00514,0.79181,1,0,
06.29 11:26:25:890,1811,0.07281,-0.07307,9.82087,0.00000,0.00000,-2525397680142175760794213416960.00000,0.38867,-0.12322,-0.60150,-0.38585,104.71622,-0.46515,0.61073,0.00116,-0.00515,0.79182,1,0,
06.29 11:26:25:900,1812,0.10008,-0.06568,9.81181,0.00000,0.00000,-2525397680142175760794213416960.00000,0.38766,-0.12277,-0.59902,-0.38443,104.71668,-0.46487,0.61072,0.00116,-0.00513,0.79183,1,0,
06.29 11:26:25:910,1813,0.10119,-0.06176,9.81095,0.00000,0.00000,-2525397680142175760794213416960.00000,0.38866,-0.12225,-0.60001,-0.38293,104.71627,-0.46525,0.61073,0.00117,-0.00513,0.79182,1,0,
06.29 11:26:25:920,1814,0.09218,-0.08279,9.82754,0.00000,0.00000,-2525397680142175760794213416960.00000,0.38865,-0.12328,-0.59852,-0.38193,104.71597,-0.46513,0.61073,0.00118,-0.00512,0.79182,1,0,
06.29 11:26:25:929,1815,0.08486,-0.07633,9.81741,0.00000,0.00000,-2525397680142175760794213416960.00000,0.38815,-0.12280,-0.59753,-0.38246,104.71571,-0.46600,0.61073,0.00118,-0.00513,0.79182,1,0,
06.29 11:26:25:940,1816,0.08241,-0.08233,9.83422,0.00000,0.00000,-2525397680142175760794213416960.00000,0.38964,-0.12079,-0.59800,-0.38143,104.71466,-0.46633,0.61074,0.00119,-0.00512,0.79182,1,0,
06.29 11:26:25:950,1817,0.05603,-0.06901,9.81953,0.00000,0.00000,-2525397680142175760794213416960.00000,0.38867,-0.12123,-0.60100,-0.38048,104.71061,-0.46633,0.61077,0.00119,-0.00511,0.79179,1,0,
06.29 11:26:25:961,1818,0.09201,-0.07699,9.82840,0.00000,0.00000,-2525397680142175760794213416960.00000,0.38915,-0.12076,-0.59950,-0.38099,104.70805,-0.46689,0.61078,0.00120,-0.00512,0.79178,1,0,
06.29 11:26:25:970,1819,0.07815,-0.05020,9.82359,0.00000,0.00000,-2525397680142175760794213416960.00000,0.38766,-0.12178,-0.59852,-0.38093,104.70847,-0.46678,0.61078,0.00119,-0.00512,0.79178,1,0,
06.29 11:26:25:980,1820,0.07613,-0.05466,9.82273,0.00000,0.00000,-2525397680142175760794213416960.00000,0.38815,-0.12131,-0.59702,-0.38142,104.70799,-0.46734,0.61078,0.00120,-0.00513,0.79178,1,0,
06.29 11:26:25:990,1821,0.08314,-0.07375,9.83396,0.00000,0.00000,-2525397680142175760794213416960.00000,0.38866,-0.12174,-0.60050,-0.38210,104.70811,-0.46773,0.61078,0.00120,-0.00513,0.79178,1,0,
06.29 11:26:26:000,1822,0.08256,-0.05949,9.81801,0.00000,0.00000,-2525397680142175760794213416960.00000,0.38966,-0.12173,-0.60050,-0.38275,104.70556,-0.46637,0.61080,0.00118,-0.00513,0.79177,1,0,
06.29 11:26:26:010,1823,0.07501,-0.06042,9.82783,0.00000,0.00000,-2525397680142175760794213416960.00000,0.38866,-0.12224,-0.60051,-0.38283,104.70541,-0.46617,0.61080,0.00118,-0.00513,0.79177,1,0,
06.29 11:26:26:019,1824,0.08599,-0.07877,9.81841,0.00000,0.00000,-2525397680142175760794213416960.00000,0.38816,-0.12227,-0.59902,-0.38297,104.70615,-0.46568,0.61080,0.00118,-0.00513,0.79177,1,0,
06.29 11:26:26:030,1825,0.06812,-0.08793,9.81434,0.00000,0.00000,-2525397680142175760794213416960.00000,0.38915,-0.12229,-0.59801,-0.38271,104.70633,-0.46629,0.61079,0.00118,-0.00513,0.79177,1,0,
06.29 11:26:26:039,1826,0.08556,-0.06533,9.82793,0.00000,0.00000,-2525397680142175760794213416960.00000,0.38767,-0.12176,-0.59952,-0.38238,104.70425,-0.46616,0.61081,0.00118,-0.00513,0.79176,1,0,
06.29 11:26:26:050,1827,0.10051,-0.07018,9.82936,0.00000,0.00000,-2525397680142175760794213416960.00000,0.38765,-0.12230,-0.59753,-0.38197,104.70439,-0.46650,0.61081,0.00119,-0.00513,0.79176,1,0,
06.29 11:26:26:060,1828,0.06861,-0.06731,9.82411,0.00000,0.00000,-2525397680142175760794213416960.00000,0.38916,-0.12224,-0.60050,-0.38285,104.70540,-0.46686,0.61080,0.00119,-0.00513,0.79177,1,0,
06.29 11:26:26:070,1829,0.07442,-0.08059,9.81324,0.00000,0.00000,-2525397680142175760794213416960.00000,0.38817,-0.12274,-0.60051,-0.38409,104.70413,-0.46566,0.61081,0.00117,-0.00514,0.79176,1,0,
06.29 11:26:26:080,1830,0.08581,-0.07200,9.81996,0.00000,0.00000,-2525397680142175760794213416960.00000,0.38815,-0.12279,-0.59802,-0.38546,104.70503,-0.46504,0.61080,0.00116,-0.00514,0.79176,1,0,
06.29 11:26:26:090,1831,0.08749,-0.07457,9.82452,0.00000,0.00000,-2525397680142175760794213416960.00000,0.38816,-0.12125,-0.60001,-0.38509,104.70535,-0.46434,0.61080,0.00116,-0.00514,0.79177,1,0,
06.29 11:26:26:100,1832,0.08647,-0.06762,9.82118,0.00000,0.00000,-2525397680142175760794213416960.00000,0.38865,-0.12129,-0.59801,-0.38466,104.70664,-0.46389,0.61079,0.00116,-0.00513,0.79177,1,0,
06.29 11:26:26:111,1833,0.06874,-0.05510,9.82664,0.00000,0.00000,-2525397680142175760794213416960.00000,0.38815,-0.12231,-0.59703,-0.38407,104.70359,-0.46331,0.61081,0.00115,-0.00512,0.79176,1,0,
06.29 11:26:26:120,1834,0.09494,-0.05625,9.81553,0.00000,0.00000,-2525397680142175760794213416960.00000,0.38617,-0.12128,-0.59903,-0.38331,104.70391,-0.46366,0.61081,0.00116,-0.00512,0.79176,1,0,
06.29 11:26:26:130,1835,0.08201,-0.08351,9.82361,0.00000,0.00000,-2525397680142175760794213416960.00000,0.38964,-0.12181,-0.59701,-0.38360,104.70446,-0.46449,0.61081,0.00116,-0.00513,0.79176,1,0,
06.29 11:26:26:140,1836,0.08766,-0.08491,9.80611,0.00000,0.00000,-2525397680142175760794213416960.00000,0.38616,-0.12231,-0.59704,-0.38256,104.70587,-0.46370,0.61080,0.00116,-0.00511,0.79177,1,0,
06.29 11:26:26:150,1837,0.07739,-0.06699,9.82154,0.00000,0.00000,-2525397680142175760794213416960.00000,0.38817,-0.12174,-0.60051,-0.38214,104.70644,-0.46459,0.61079,0.00117,-0.00512,0.79177,1,0,
06.29 11:26:26:160,1838,0.07305,-0.05548,9.82599,0.00000,0.00000,-2525397680142175760794213416960.00000,0.38915,-0.12028,-0.59850,-0.38054,104.70720,-0.46589,0.61079,0.00119,-0.00511,0.79178,1,0,
06.29 11:26:26:170,1839,0.09092,-0.06393,9.82423,0.00000,0.00000,-2525397680142175760794213416960.00000,0.38965,-0.12326,-0.59901,-0.38038,104.71026,-0.46589,0.61077,0.00119,-0.00511,0.79179,1,0,
06.29 11:26:26:180,1840,0.06990,-0.07362,9.82638,0.00000,0.00000,-2525397680142175760794213416960.00000,0.38816,-0.12226,-0.59951,-0.37923,104.71011,-0.46571,0.61077,0.00120,-0.00510,0.79179,1,0,
06.29 11:26:26:189,1841,0.07754,-0.08348,9.83181,0.00000,0.00000,-2525397680142175760794213416960.00000,0.38717,-0.12424,-0.60052,-0.37861,104.71007,-0.46611,0.61077,0.00120,-0.00510,0.79179,1,0,
06.29 11:26:26:200,1842,0.08243,-0.07137,9.81970,0.00000,0.00000,-2525397680142175760794213416960.00000,0.38864,-0.12181,-0.59702,-0.37740,104.71484,-0.46783,0.61074,0.00122,-0.00510,0.79182,1,0,
06.29 11:26:26:211,1843,0.09143,-0.07718,9.81102,0.00000,0.00000,-2525397680142175760794213416960.00000,0.39014,-0.12178,-0.59800,-0.37708,104.71748,-0.46625,0.61072,0.00121,-0.00509,0.79183,1,0,
06.29 11:26:26:220,1844,0.08286,-0.07688,9.82361,0.00000,0.00000,-2525397680142175760794213416960.00000,0.39063,-0.12330,-0.59701,-0.37697,104.71539,-0.46700,0.61073,0.00122,-0.00509,0.79182,1,0,
06.29 11:26:26:230,1845,0.08606,-0.05751,9.82869,0.00000,0.00000,-2525397680142175760794213416960.00000,0.38816,-0.12327,-0.59902,-0.37701,104.71603,-0.46622,0.61073,0.00121,-0.00509,0.79182,1,0,
06.29 11:26:26:240,1846,0.08679,-0.08200,9.80601,0.00000,0.00000,-2525397680142175760794213416960.00000,0.38866,-0.12075,-0.60000,-0.37709,104.71665,-0.46633,0.61072,0.00121,-0.00509,0.79183,1,0,
06.29 11:26:26:250,1847,0.07811,-0.05927,9.82721,0.00000,0.00000,-2525397680142175760794213416960.00000,0.38915,-0.12078,-0.59851,-0.37727,104.71332,-0.46724,0.61075,0.00122,-0.00510,0.79181,1,0,
06.29 11:26:26:260,1848,0.09445,-0.06712,9.81674,0.00000,0.00000,-2525397680142175760794213416960.00000,0.38816,-0.12225,-0.60001,-0.37855,104.71175,-0.46614,0.61076,0.00120,-0.00510,0.79180,1,0,
06.29 11:26:26:270,1849,0.08420,-0.06312,9.81965,0.00000,0.00000,-2525397680142175760794213416960.00000,0.38766,-0.12277,-0.59902,-0.37866,104.71075,-0.46638,0.61076,0.00120,-0.00510,0.79180,1,0,
06.29 11:26:26:281,1850,0.07124,-0.07715,9.81903,0.00000,0.00000,-2525397680142175760794213416960.00000,0.38617,-0.12129,-0.59853,-0.37866,104.71056,-0.46675,0.61077,0.00121,-0.00510,0.79179,1,0,
06.29 11:26:26:290,1851,0.06519,-0.07446,9.81550,0.00000,0.00000,-2525397680142175760794213416960.00000,0.38866,-0.12175,-0.60001,-0.37897,104.71390,-0.46727,0.61074,0.00121,-0.00511,0.79181,1,0,
06.29 11:26:26:300,1852,0.08486,-0.07748,9.81593,0.00000,0.00000,-2525397680142175760794213416960.00000,0.38618,-0.12176,-0.59953,-0.38005,104.71493,-0.46698,0.61074,0.00120,-0.00512,0.79182,1,0,
06.29 11:26:26:310,1853,0.07154,-0.07273,9.80344,0.00000,0.00000,-2525397680142175760794213416960.00000,0.38716,-0.12179,-0.59803,-0.38089,104.71179,-0.46749,0.61076,0.00120,-0.00512,0.79180,1,0,
06.29 11:26:26:320,1854,0.07856,-0.08980,9.82332,0.00000,0.00000,-2525397680142175760794213416960.00000,0.38964,-0.12378,-0.59801,-0.38179,104.71152,-0.46676,0.61076,0.00119,-0.00513,0.79180,1,0,
06.29 11:26:26:330,1855,0.09068,-0.08500,9.81317,0.00000,0.00000,-2525397680142175760794213416960.00000,0.38667,-0.12177,-0.59903,-0.38116,104.71091,-0.46630,0.61076,0.00119,-0.00512,0.79180,1,0,
06.29 11:26:26:340,1856,0.09986,-0.05889,9.81391,0.00000,0.00000,-2525397680142175760794213416960.00000,0.38964,-0.12279,-0.59751,-0.38061,104.71121,-0.46681,0.61076,0.00120,-0.00512,0.79180,1,0,
06.29 11:26:26:351,1857,0.09071,-0.09158,9.82649,0.00000,0.00000,-2525397680142175760794213416960.00000,0.38616,-0.12381,-0.59705,-0.38159,104.71177,-0.46699,0.61076,0.00119,-0.00513,0.79180,1,0,
06.29 11:26:26:360,1858,0.07179,-0.06913,9.81400,0.00000,0.00000,-2525397680142175760794213416960.00000,0.39113,-0.12077,-0.59849,-0.38165,104.70897,-0.46719,0.61078,0.00119,-0.00513,0.79179,1,0,
06.29 11:26:26:370,1859,0.07253,-0.06090,9.82614,0.00000,0.00000,-2525397680142175760794213416960.00000,0.38816,-0.12277,-0.59902,-0.38252,104.70625,-0.46613,0.61080,0.00118,-0.00513,0.79177,1,0,
06.29 11:26:26:380,1860,0.09385,-0.07005,9.81443,0.00000,0.00000,-2525397680142175760794213416960.00000,0.38767,-0.12226,-0.59952,-0.38217,104.70609,-0.46692,0.61080,0.00119,-0.00513,0.79177,1,0,
06.29 11:26:26:390,1861,0.07025,-0.07546,9.83370,0.00000,0.00000,-2525397680142175760794213416960.00000,0.38716,-0.12230,-0.59753,-0.38164,104.70535,-0.46731,0.61080,0.00119,-0.00513,0.79177,1,0,
06.29 11:26:26:400,1862,0.08597,-0.06719,9.82158,0.00000,0.00000,-2525397680142175760794213416960.00000,0.38866,-0.12425,-0.59952,-0.38257,104.70516,-0.46700,0.61080,0.00119,-0.00513,0.79177,1,0,
06.29 11:26:26:409,1863,0.07234,-0.06107,9.81727,0.00000,0.00000,-2525397680142175760794213416960.00000,0.38667,-0.12376,-0.59953,-0.38278,104.70713,-0.46723,0.61079,0.00119,-0.00514,0.79178,1,0,
06.29 11:26:26:420,1864,0.09996,-0.06544,9.81024,0.00000,0.00000,-2525397680142175760794213416960.00000,0.38718,-0.12172,-0.60151,-0.38234,104.70704,-0.46666,0.61079,0.00119,-0.00513,0.79178,1,0,
06.29 11:26:26:429,1865,0.08130,-0.06252,9.82478,0.00000,0.00000,-2525397680142175760794213416960.00000,0.38816,-0.12378,-0.59852,-0.38235,104.70642,-0.46642,0.61079,0.00118,-0.00513,0.79177,1,0,
06.29 11:26:26:440,1866,0.08532,-0.05760,9.81639,0.00000,0.00000,-2525397680142175760794213416960.00000,0.38816,-0.12175,-0.60001,-0.38155,104.70599,-0.46618,0.61080,0.00119,-0.00512,0.79177,1,0,
06.29 11:26:26:450,1867,0.08246,-0.06208,9.83100,0.00000,0.00000,-2525397680142175760794213416960.00000,0.38914,-0.12479,-0.59752,-0.38188,104.70570,-0.46674,0.61080,0.00119,-0.00513,0.79177,1,0,
06.29 11:26:26:460,1868,0.08434,-0.05347,9.82754,0.00000,0.00000,-2525397680142175760794213416960.00000,0.38719,-0.12320,-0.60251,-0.38336,104.70517,-0.46679,0.61080,0.00118,-0.00514,0.79177,1,0,
06.29 11:26:26:470,1869,0.08896,-0.08132,9.83014,0.00000,0.00000,-2525397680142175760794213416960.00000,0.38816,-0.12227,-0.59902,-0.38449,104.70831,-0.46703,0.61078,0.00118,-0.00515,0.79178,1,0,
06.29 11:26:26:481,1870,0.08383,-0.07048,9.80651,0.00000,0.00000,-2525397680142175760794213416960.00000,0.38816,-0.12377,-0.59902,-0.38476,104.70840,-0.46607,0.61078,0.00117,-0.00514,0.79178,1,0,
06.29 11:26:26:490,1871,0.06703,-0.07147,9.81500,0.00000,0.00000,-2525397680142175760794213416960.00000,0.38668,-0.12275,-0.60003,-0.38431,104.70545,-0.46578,0.61080,0.00117,-0.00514,0.79177,1,0,
06.29 11:26:26:501,1872,0.07758,-0.06479,9.82592,0.00000,0.00000,-2525397680142175760794213416960.00000,0.38815,-0.12229,-0.59802,-0.38396,104.70949,-0.46649,0.61077,0.00118,-0.00514,0.79179,1,0,
06.29 11:26:26:510,1873,0.08246,-0.06414,9.80711,0.00000,0.00000,-2525397680142175760794213416960.00000,0.38667,-0.12028,-0.59902,-0.38277,104.70909,-0.46709,0.61078,0.00119,-0.00513,0.79179,1,0,
06.29 11:26:26:521,1874,0.08790,-0.06687,9.82747,0.00000,0.00000,-2525397680142175760794213416960.00000,0.38765,-0.12230,-0.59753,-0.38327,104.70771,-0.46803,0.61079,0.00119,-0.00514,0.79178,1,0,
06.29 11:26:26:530,1875,0.09266,-0.06813,9.81972,0.00000,0.00000,-2525397680142175760794213416960.00000,0.38965,-0.12175,-0.59950,-0.38326,104.70791,-0.46906,0.61078,0.00120,-0.00515,0.79178,1,0,
06.29 11:26:26:540,1876,0.08708,-0.06399,9.80489,0.00000,0.00000,-2525397680142175760794213416960.00000,0.38617,-0.12228,-0.59853,-0.38263,104.70518,-0.46904,0.61080,0.00120,-0.00514,0.79177,1,0,
06.29 11:26:26:551,1877,0.06829,-0.05668,9.82814,0.00000,0.00000,-2525397680142175760794213416960.00000,0.38914,-0.12280,-0.59752,-0.38226,104.70418,-0.46780,0.61081,0.00119,-0.00513,0.79176,1,0,
06.29 11:26:26:560,1878,0.07799,-0.06852,9.81357,0.00000,0.00000,-2525397680142175760794213416960.00000,0.38717,-0.12224,-0.60052,-0.38139,104.70581,-0.46827,0.61080,0.00120,-0.00513,0.79177,1,0,
06.29 11:26:26:569,1879,0.07817,-0.07065,9.81407,0.00000,0.00000,-2525397680142175760794213416960.00000,0.38816,-0.12378,-0.59852,-0.38162,104.70881,-0.46934,0.61078,0.00121,-0.00514,0.79178,1,0,
06.29 11:26:26:580,1880,0.07595,-0.06801,9.80997,0.00000,0.00000,-2525397680142175760794213416960.00000,0.38866,-0.12074,-0.60050,-0.38118,104.70932,-0.46893,0.61077,0.00121,-0.00513,0.79179,1,0,
06.29 11:26:26:590,1881,0.09095,-0.06445,9.82340,0.00000,0.00000,-2525397680142175760794213416960.00000,0.38815,-0.12331,-0.59703,-0.38018,104.70557,-0.46916,0.61080,0.00122,-0.00513,0.79177,1,0,
06.29 11:26:26:600,1882,0.09940,-0.05590,9.81522,0.00000,0.00000,-2525397680142175760794213416960.00000,0.38865,-0.12230,-0.59752,-0.37947,104.71039,-0.46942,0.61077,0.00122,-0.00512,0.79179,1,0,
06.29 11:26:26:610,1883,0.08597,-0.07685,9.82873,0.00000,0.00000,-2525397680142175760794213416960.00000,0.38767,-0.12173,-0.60101,-0.37937,104.71061,-0.46978,0.61077,0.00122,-0.00513,0.79179,1,0,
06.29 11:26:26:621,1884,0.09086,-0.06292,9.81855,0.00000,0.00000,-2525397680142175760794213416960.00000,0.38766,-0.12329,-0.59803,-0.38001,104.71062,-0.46978,0.61077,0.00122,-0.00513,0.79179,1,0,
06.29 11:26:26:630,1885,0.07701,-0.07167,9.81658,0.00000,0.00000,-2525397680142175760794213416960.00000,0.38867,-0.12170,-0.60249,-0.37947,104.70998,-0.47036,0.61077,0.00123,-0.00513,0.79179,1,0,
06.29 11:26:26:640,1886,0.08573,-0.06142,9.80484,0.00000,0.00000,-2525397680142175760794213416960.00000,0.38867,-0.12223,-0.60100,-0.38029,104.71059,-0.47007,0.61077,0.00122,-0.00513,0.79179,1,0,
06.29 11:26:26:650,1887,0.08448,-0.07070,9.82366,0.00000,0.00000,-2525397680142175760794213416960.00000,0.38866,-0.12227,-0.59901,-0.38022,104.71011,-0.47047,0.61077,0.00122,-0.00513,0.79179,1,0,
06.29 11:26:26:661,1888,0.07277,-0.06449,9.82225,0.00000,0.00000,-2525397680142175760794213416960.00000,0.38865,-0.12129,-0.59801,-0.38090,104.70950,-0.47145,0.61077,0.00123,-0.00514,0.79179,1,0,
06.29 11:26:26:670,1889,0.06504,-0.06927,9.82230,0.00000,0.00000,-2525397680142175760794213416960.00000,0.38964,-0.12330,-0.59702,-0.38234,104.71050,-0.47038,0.61077,0.00121,-0.00515,0.79179,1,0,
06.29 11:26:26:681,1890,0.08040,-0.07231,9.82726,0.00000,0.00000,-2525397680142175760794213416960.00000,0.38966,-0.12273,-0.60050,-0.38109,104.70851,-0.46966,0.61078,0.00121,-0.00514,0.79178,1,0,
06.29 11:26:26:690,1891,0.09087,-0.08475,9.82332,0.00000,0.00000,-2525397680142175760794213416960.00000,0.38817,-0.12374,-0.60051,-0.38182,104.70892,-0.47090,0.61078,0.00122,-0.00515,0.79179,1,0,
06.29 11:26:26:700,1892,0.08175,-0.04080,9.81970,0.00000,0.00000,-2525397680142175760794213416960.00000,0.39014,-0.12226,-0.59900,-0.38139,104.70741,-0.47058,0.61079,0.00122,-0.00514,0.79178,1,0,
06.29 11:26:26:710,1893,0.09038,-0.05568,9.81415,0.00000,0.00000,-2525397680142175760794213416960.00000,0.38767,-0.12275,-0.60002,-0.38230,104.70737,-0.47011,0.61079,0.00121,-0.00515,0.79178,1,0,
06.29 11:26:26:720,1894,0.08195,-0.07405,9.81491,0.00000,0.00000,-2525397680142175760794213416960.00000,0.38716,-0.12128,-0.59852,-0.38252,104.70902,-0.46848,0.61078,0.00120,-0.00514,0.79179,1,0,
06.29 11:26:26:731,1895,0.08509,-0.07101,9.80043,0.00000,0.00000,-2525397680142175760794213416960.00000,0.39065,-0.12274,-0.59999,-0.38357,104.70825,-0.46922,0.61078,0.00120,-0.00515,0.79178,1,0,
06.29 11:26:26:740,1896,0.09823,-0.06165,9.81891,0.00000,0.00000,-2525397680142175760794213416960.00000,0.38866,-0.12125,-0.60000,-0.38295,104.70866,-0.46983,0.61078,0.00121,-0.00515,0.79178,1,0,
06.29 11:26:26:750,1897,0.07411,-0.07508,9.80964,0.00000,0.00000,-2525397680142175760794213416960.00000,0.38914,-0.12680,-0.59703,-0.38346,104.71022,-0.47007,0.61077,0.00120,-0.00516,0.79179,1,0,
06.29 11:26:26:760,1898,0.08020,-0.07023,9.82032,0.00000,0.00000,-2525397680142175760794213416960.00000,0.38815,-0.12081,-0.59702,-0.38332,104.69775,-0.46937,0.61085,0.00120,-0.00515,0.79173,1,0,
06.29 11:26:26:770,1899,0.09366,-0.07837,9.81727,0.00000,0.00000,-2525397680142175760794213416960.00000,0.38965,-0.12174,-0.60000,-0.38458,104.70066,-0.46996,0.61083,0.00120,-0.00516,0.79174,1,0,
06.29 11:26:26:781,1900,0.08791,-0.08324,9.81744,0.00000,0.00000,-2525397680142175760794213416960.00000,0.38667,-0.12177,-0.59903,-0.38433,104.70066,-0.47041,0.61083,0.00120,-0.00516,0.79174,1,0,
06.29 11:26:26:790,1901,0.08674,-0.07344,9.81093,0.00000,0.00000,-2525397680142175760794213416960.00000,0.38717,-0.12177,-0.59902,-0.38474,104.70547,-0.47097,0.61080,0.00120,-0.00517,0.79177,1,0,
06.29 11:26:26:801,1902,0.07936,-0.06953,9.82447,0.00000,0.00000,-2525397680142175760794213416960.00000,0.38915,-0.12277,-0.59901,-0.38503,104.70431,-0.47132,0.61081,0.00120,-0.00517,0.79176,1,0,
06.29 11:26:26:810,1903,0.09667,-0.07205,9.82833,0.00000,0.00000,-2525397680142175760794213416960.00000,0.38815,-0.12079,-0.59802,-0.38480,104.70456,-0.47233,0.61081,0.00121,-0.00518,0.79176,1,0,
06.29 11:26:26:820,1904,0.05497,-0.07739,9.81972,0.00000,0.00000,-2525397680142175760794213416960.00000,0.38666,-0.12229,-0.59803,-0.38399,104.70537,-0.47256,0.61080,0.00122,-0.00517,0.79177,1,0,
06.29 11:26:26:831,1905,0.09257,-0.06985,9.82740,0.00000,0.00000,-2525397680142175760794213416960.00000,0.38916,-0.12175,-0.60000,-0.38401,104.70676,-0.47215,0.61079,0.00122,-0.00517,0.79177,1,0,
06.29 11:26:26:840,1906,0.08824,-0.05581,9.80494,0.00000,0.00000,-2525397680142175760794213416960.00000,0.38716,-0.12129,-0.59803,-0.38390,104.70708,-0.47287,0.61079,0.00122,-0.00517,0.79178,1,0,
06.29 11:26:26:850,1907,0.09728,-0.06723,9.82251,0.00000,0.00000,-2525397680142175760794213416960.00000,0.39013,-0.12180,-0.59701,-0.38386,104.70475,-0.47278,0.61081,0.00122,-0.00517,0.79176,1,0,
06.29 11:26:26:860,1908,0.07791,-0.06863,9.82080,0.00000,0.00000,-2525397680142175760794213416960.00000,0.38569,-0.12175,-0.60053,-0.38406,104.70831,-0.47235,0.61078,0.00122,-0.00517,0.79178,1,0,
06.29 11:26:26:871,1909,0.08687,-0.06463,9.82258,0.00000,0.00000,-2525397680142175760794213416960.00000,0.38865,-0.12278,-0.59852,-0.38345,104.70510,-0.47149,0.61080,0.00121,-0.00516,0.79176,1,0,
06.29 11:26:26:880,1910,0.07835,-0.04984,9.81908,0.00000,0.00000,-2525397680142175760794213416960.00000,0.38667,-0.12278,-0.59853,-0.38223,104.70553,-0.47080,0.61080,0.00122,-0.00515,0.79177,1,0,
06.29 11:26:26:891,1911,0.08981,-0.06844,9.82294,0.00000,0.00000,-2525397680142175760794213416960.00000,0.38915,-0.12325,-0.59951,-0.38224,104.70578,-0.47069,0.61080,0.00121,-0.00515,0.79177,1,0,
06.29 11:26:26:900,1912,0.08279,-0.05651,9.81248,0.00000,0.00000,-2525397680142175760794213416960.00000,0.38715,-0.12332,-0.59654,-0.38110,104.70591,-0.47090,0.61080,0.00122,-0.00514,0.79177,1,0,
06.29 11:26:26:910,1913,0.08211,-0.05987,9.82971,0.00000,0.00000,-2525397680142175760794213416960.00000,0.38915,-0.12028,-0.59850,-0.38037,104.70519,-0.47117,0.61080,0.00123,-0.00514,0.79177,1,0,
06.29 11:26:26:920,1914,0.08444,-0.07376,9.82239,0.00000,0.00000,-2525397680142175760794213416960.00000,0.38964,-0.12078,-0.59850,-0.38033,104.70278,-0.46985,0.61082,0.00122,-0.00513,0.79175,1,0,
06.29 11:26:26:931,1915,0.08691,-0.07768,9.81963,0.00000,0.00000,-2525397680142175760794213416960.00000,0.38767,-0.12324,-0.60052,-0.37963,104.70789,-0.47079,0.61078,0.00123,-0.00513,0.79178,1,0,
06.29 11:26:26:940,1916,0.06584,-0.07496,9.81243,0.00000,0.00000,-2525397680142175760794213416960.00000,0.38815,-0.12181,-0.59702,-0.37864,104.70432,-0.47081,0.61081,0.00123,-0.00513,0.79176,1,0,
06.29 11:26:26:950,1917,0.06492,-0.07254,9.83038,0.00000,0.00000,-2525397680142175760794213416960.00000,0.38965,-0.12176,-0.59900,-0.37764,104.70506,-0.47048,0.61080,0.00124,-0.00512,0.79176,1,0,
06.29 11:26:26:961,1918,0.06882,-0.07712,9.82266,0.00000,0.00000,-2525397680142175760794213416960.00000,0.38518,-0.12180,-0.59804,-0.37750,104.70384,-0.47074,0.61081,0.00124,-0.00512,0.79176,1,0,
06.29 11:26:26:980,1919,0.08758,-0.05463,9.80306,0.00000,0.00000,-2525397680142175760794213416960.00000,0.39014,-0.12077,-0.59850,-0.37658,104.70630,-0.47104,0.61080,0.00125,-0.00511,0.79177,1,0,
06.29 11:26:26:983,1920,0.09547,-0.05688,9.82232,0.00000,0.00000,-2525397680142175760794213416960.00000,0.38816,-0.12277,-0.59902,-0.37560,104.70540,-0.47030,0.61080,0.00125,-0.00510,0.79177,1,0,
06.29 11:26:26:990,1921,0.12641,-0.08295,9.82635,0.00000,0.00000,-2525397680142175760794213416960.00000,0.38915,-0.12126,-0.59950,-0.37587,104.70512,-0.46988,0.61080,0.00124,-0.00510,0.79177,1,0,
06.29 11:26:27:000,1922,0.08747,-0.05968,9.83079,0.00000,0.00000,-2525397680142175760794213416960.00000,0.38816,-0.12377,-0.59902,-0.37606,104.70654,-0.46993,0.61079,0.00124,-0.00510,0.79177,1,0,
06.29 11:26:27:010,1923,0.08305,-0.08304,9.82213,0.00000,0.00000,-2525397680142175760794213416960.00000,0.38668,-0.12324,-0.60052,-0.37540,104.70628,-0.46982,0.61080,0.00125,-0.00510,0.79177,1,0,
06.29 11:26:27:020,1924,0.08886,-0.07971,9.81956,0.00000,0.00000,-2525397680142175760794213416960.00000,0.38816,-0.12377,-0.59902,-0.37511,104.70656,-0.46993,0.61079,0.00125,-0.00510,0.79177,1,0,
06.29 11:26:27:030,1925,0.08500,-0.06990,9.81927,0.00000,0.00000,-2525397680142175760794213416960.00000,0.38915,-0.12327,-0.59851,-0.37419,104.70978,-0.46992,0.61077,0.00125,-0.00509,0.79179,1,0,
06.29 11:26:27:040,1926,0.08475,-0.08183,9.81958,0.00000,0.00000,-2525397680142175760794213416960.00000,0.38865,-0.12129,-0.59801,-0.37434,104.71108,-0.47071,0.61076,0.00126,-0.00510,0.79180,1,0,
06.29 11:26:27:051,1927,0.09812,-0.06314,9.82840,0.00000,0.00000,-2525397680142175760794213416960.00000,0.38865,-0.12378,-0.59852,-0.37434,104.71110,-0.47167,0.61076,0.00126,-0.00510,0.79180,1,0,
06.29 11:26:27:060,1928,0.08063,-0.06037,9.81856,0.00000,0.00000,-2525397680142175760794213416960.00000,0.38816,-0.12325,-0.60002,-0.37419,104.71227,-0.47226,0.61075,0.00127,-0.00510,0.79180,1,0,
06.29 11:26:27:070,1929,0.08710,-0.07622,9.80604,0.00000,0.00000,-2525397680142175760794213416960.00000,0.38963,-0.12182,-0.59651,-0.37375,104.71043,-0.47278,0.61077,0.00127,-0.00510,0.79179,1,0,
06.29 11:26:27:080,1930,0.08560,-0.07600,9.82402,0.00000,0.00000,-2525397680142175760794213416960.00000,0.38617,-0.12179,-0.59804,-0.37347,104.70950,-0.47275,0.61077,0.00128,-0.00510,0.79179,1,0,
06.29 11:26:27:090,1931,0.06979,-0.08162,9.82185,0.00000,0.00000,-2525397680142175760794213416960.00000,0.38915,-0.12179,-0.59801,-0.37393,104.70821,-0.47299,0.61078,0.00128,-0.00510,0.79178,1,0,
06.29 11:26:27:101,1932,0.07521,-0.06281,9.81617,0.00000,0.00000,-2525397680142175760794213416960.00000,0.39112,-0.11980,-0.59699,-0.37484,104.70534,-0.47287,0.61080,0.00127,-0.00511,0.79177,1,0,
06.29 11:26:27:110,1933,0.07653,-0.06318,9.81138,0.00000,0.00000,-2525397680142175760794213416960.00000,0.38864,-0.12133,-0.59602,-0.37626,104.70283,-0.47248,0.61082,0.00126,-0.00512,0.79175,1,0,
06.29 11:26:27:120,1934,0.07766,-0.05970,9.82223,0.00000,0.00000,-2525397680142175760794213416960.00000,0.38816,-0.12027,-0.59901,-0.37630,104.70232,-0.47287,0.61082,0.00126,-0.00512,0.79175,1,0,
06.29 11:26:27:130,1935,0.06563,-0.08280,9.81321,0.00000,0.00000,-2525397680142175760794213416960.00000,0.38817,-0.12074,-0.60050,-0.37704,104.70396,-0.47253,0.61081,0.00126,-0.00512,0.79176,1,0,
06.29 11:26:27:140,1936,0.09384,-0.07650,9.82154,0.00000,0.00000,-2525397680142175760794213416960.00000,0.38865,-0.12330,-0.59752,-0.37756,104.70361,-0.47457,0.61081,0.00127,-0.00514,0.79176,1,0,
06.29 11:26:27:150,1937,0.08758,-0.06394,9.82452,0.00000,0.00000,-2525397680142175760794213416960.00000,0.39015,-0.12274,-0.60000,-0.37681,104.70302,-0.47437,0.61082,0.00127,-0.00513,0.79175,1,0,
06.29 11:26:27:160,1938,0.07939,-0.05019,9.82137,0.00000,0.00000,-2525397680142175760794213416960.00000,0.38966,-0.12173,-0.60050,-0.37643,104.70359,-0.47389,0.61081,0.00127,-0.00513,0.79176,1,0,
06.29 11:26:27:171,1939,0.08417,-0.06667,9.80864,0.00000,0.00000,-2525397680142175760794213416960.00000,0.38916,-0.12123,-0.60100,-0.37637,104.70449,-0.47287,0.61081,0.00126,-0.00512,0.79176,1,0,
06.29 11:26:27:179,1940,0.08565,-0.06322,9.82399,0.00000,0.00000,-2525397680142175760794213416960.00000,0.38767,-0.12125,-0.60001,-0.37643,104.70348,-0.47311,0.61081,0.00126,-0.00512,0.79176,1,0,
06.29 11:26:27:190,1941,0.07226,-0.06763,9.82747,0.00000,0.00000,-2525397680142175760794213416960.00000,0.38915,-0.12178,-0.59851,-0.37611,104.70567,-0.47252,0.61080,0.00126,-0.00512,0.79177,1,0,
06.29 11:26:27:201,1942,0.07571,-0.03403,9.82335,0.00000,0.00000,-2525397680142175760794213416960.00000,0.38866,-0.12124,-0.60050,-0.37497,104.70846,-0.47229,0.61078,0.00126,-0.00511,0.79178,1,0,
06.29 11:26:27:209,1943,0.07437,-0.08253,9.81326,0.00000,0.00000,-2525397680142175760794213416960.00000,0.38816,-0.12177,-0.59901,-0.37456,104.70506,-0.47235,0.61080,0.00127,-0.00511,0.79176,1,0,
06.29 11:26:27:220,1944,0.08750,-0.07942,9.82709,0.00000,0.00000,-2525397680142175760794213416960.00000,0.38965,-0.12376,-0.59901,-0.37399,104.70508,-0.47127,0.61080,0.00126,-0.00510,0.79176,1,0,
06.29 11:26:27:231,1945,0.06358,-0.06955,9.81286,0.00000,0.00000,-2525397680142175760794213416960.00000,0.38916,-0.11975,-0.60000,-0.37329,104.70613,-0.47070,0.61080,0.00126,-0.00509,0.79177,1,0,
06.29 11:26:27:240,1946,0.07391,-0.07947,9.82435,0.00000,0.00000,-2525397680142175760794213416960.00000,0.38965,-0.12126,-0.59950,-0.37425,104.70724,-0.47089,0.61079,0.00126,-0.00510,0.79178,1,0,
06.29 11:26:27:250,1947,0.09493,-0.06898,9.82609,0.00000,0.00000,-2525397680142175760794213416960.00000,0.39015,-0.12275,-0.59950,-0.37410,104.70824,-0.47055,0.61078,0.00126,-0.00509,0.79178,1,0,
06.29 11:26:27:260,1948,0.08265,-0.05890,9.80389,0.00000,0.00000,-2525397680142175760794213416960.00000,0.38765,-0.12281,-0.59703,-0.37405,104.70781,-0.47024,0.61078,0.00126,-0.00509,0.79178,1,0,
06.29 11:26:27:271,1949,0.05871,-0.05953,9.82399,0.00000,0.00000,-2525397680142175760794213416960.00000,0.39013,-0.12280,-0.59701,-0.37310,104.70834,-0.47006,0.61078,0.00126,-0.00508,0.79178,1,0,
06.29 11:26:27:280,1950,0.08056,-0.06759,9.82444,0.00000,0.00000,-2525397680142175760794213416960.00000,0.38767,-0.11974,-0.60050,-0.37259,104.70779,-0.46933,0.61078,0.00126,-0.00508,0.79178,1,0,
06.29 11:26:27:290,1951,0.08130,-0.06090,9.81341,0.00000,0.00000,-2525397680142175760794213416960.00000,0.38715,-0.12333,-0.59604,-0.37287,104.71038,-0.46872,0.61077,0.00125,-0.00507,0.79179,1,0,
06.29 11:26:27:301,1952,0.09274,-0.08000,9.81758,0.00000,0.00000,-2525397680142175760794213416960.00000,0.38767,-0.12174,-0.60051,-0.37284,104.70786,-0.46896,0.61078,0.00125,-0.00508,0.79178,1,0,
06.29 11:26:27:310,1953,0.07809,-0.07165,9.83131,0.00000,0.00000,-2525397680142175760794213416960.00000,0.38717,-0.12125,-0.60002,-0.37267,104.70560,-0.46951,0.61080,0.00126,-0.00508,0.79177,1,0,
06.29 11:26:27:320,1954,0.07286,-0.06241,9.82754,0.00000,0.00000,-2525397680142175760794213416960.00000,0.39064,-0.12227,-0.59850,-0.37328,104.70519,-0.46923,0.61080,0.00125,-0.00508,0.79177,1,0,
06.29 11:26:27:331,1955,0.08807,-0.08064,9.81021,0.00000,0.00000,-2525397680142175760794213416960.00000,0.38666,-0.12079,-0.59803,-0.37431,104.70601,-0.46835,0.61080,0.00124,-0.00508,0.79177,1,0,
06.29 11:26:27:341,1956,0.09325,-0.06546,9.82668,0.00000,0.00000,-2525397680142175760794213416960.00000,0.38864,-0.12132,-0.59652,-0.37462,104.70701,-0.46866,0.61079,0.00124,-0.00509,0.79178,1,0,
06.29 11:26:27:350,1957,0.08436,-0.06536,9.82940,0.00000,0.00000,-2525397680142175760794213416960.00000,0.38767,-0.12225,-0.60002,-0.37419,104.70980,-0.46928,0.61077,0.00125,-0.00509,0.79179,1,0,
06.29 11:26:27:360,1958,0.06671,-0.06937,9.81991,0.00000,0.00000,-2525397680142175760794213416960.00000,0.38865,-0.12028,-0.59851,-0.37448,104.70972,-0.47029,0.61077,0.00125,-0.00509,0.79179,1,0,
06.29 11:26:27:371,1959,0.06958,-0.08516,9.81708,0.00000,0.00000,-2525397680142175760794213416960.00000,0.39164,-0.12373,-0.60049,-0.37520,104.70456,-0.47065,0.61081,0.00125,-0.00510,0.79176,1,0,
06.29 11:26:27:380,1960,0.08117,-0.07828,9.82883,0.00000,0.00000,-2525397680142175760794213416960.00000,0.38768,-0.12221,-0.60201,-0.37436,104.70683,-0.47147,0.61079,0.00126,-0.00510,0.79177,1,0,
06.29 11:26:27:391,1961,0.08988,-0.07284,9.79936,0.00000,0.00000,-2525397680142175760794213416960.00000,0.38865,-0.11979,-0.59801,-0.37530,104.70537,-0.47076,0.61080,0.00125,-0.00510,0.79177,1,0,
06.29 11:26:27:400,1962,0.09623,-0.07498,9.82444,0.00000,0.00000,-2525397680142175760794213416960.00000,0.38767,-0.12323,-0.60101,-0.37597,104.70132,-0.47179,0.61083,0.00126,-0.00511,0.79174,1,0,
06.29 11:26:27:411,1963,0.08002,-0.05981,9.81410,0.00000,0.00000,-2525397680142175760794213416960.00000,0.38866,-0.12175,-0.60001,-0.37642,104.70129,-0.47266,0.61083,0.00126,-0.00512,0.79174,1,0,
06.29 11:26:27:420,1964,0.08633,-0.05907,9.82373,0.00000,0.00000,-2525397680142175760794213416960.00000,0.38765,-0.12180,-0.59753,-0.37665,104.70228,-0.47340,0.61082,0.00126,-0.00513,0.79175,1,0,
06.29 11:26:27:431,1965,0.09045,-0.05642,9.81031,0.00000,0.00000,-2525397680142175760794213416960.00000,0.38864,-0.12133,-0.59602,-0.37712,104.70211,-0.47323,0.61082,0.00126,-0.00513,0.79175,1,0,
06.29 11:26:27:441,1966,0.10913,-0.06110,9.83725,0.00000,0.00000,-2525397680142175760794213416960.00000,0.38914,-0.12231,-0.59702,-0.37718,104.70313,-0.47339,0.61082,0.00126,-0.00513,0.79175,1,0,
06.29 11:26:27:450,1967,0.09478,-0.07979,9.82065,0.00000,0.00000,-2525397680142175760794213416960.00000,0.38867,-0.12372,-0.60151,-0.37772,104.70209,-0.47319,0.61082,0.00126,-0.00513,0.79175,1,0,
06.29 11:26:27:460,1968,0.07678,-0.05727,9.81784,0.00000,0.00000,-2525397680142175760794213416960.00000,0.38668,-0.12024,-0.60051,-0.37823,104.70192,-0.47298,0.61083,0.00125,-0.00513,0.79175,1,0,
06.29 11:26:27:470,1969,0.08082,-0.06802,9.82251,0.00000,0.00000,-2525397680142175760794213416960.00000,0.38964,-0.12128,-0.59850,-0.37883,104.70264,-0.47393,0.61082,0.00126,-0.00514,0.79175,1,0,
06.29 11:26:27:480,1970,0.09038,-0.06462,9.82821,0.00000,0.00000,-2525397680142175760794213416960.00000,0.38767,-0.12225,-0.60002,-0.37936,104.70248,-0.47385,0.61082,0.00125,-0.00515,0.79175,1,0,
06.29 11:26:27:491,1971,0.07497,-0.05732,9.81164,0.00000,0.00000,-2525397680142175760794213416960.00000,0.39014,-0.12228,-0.59801,-0.38089,104.70251,-0.47436,0.61082,0.00125,-0.00516,0.79175,1,0,
06.29 11:26:27:501,1972,0.08293,-0.07798,9.82742,0.00000,0.00000,-2525397680142175760794213416960.00000,0.38816,-0.12076,-0.59951,-0.38295,104.70155,-0.47400,0.61083,0.00123,-0.00517,0.79175,1,0,
06.29 11:26:27:511,1973,0.08857,-0.04353,9.82804,0.00000,0.00000,-2525397680142175760794213416960.00000,0.38717,-0.12075,-0.60001,-0.38330,104.70047,-0.47407,0.61084,0.00123,-0.00518,0.79174,1,0,
06.29 11:26:27:521,1974,0.09453,-0.05663,9.81994,0.00000,0.00000,-2525397680142175760794213416960.00000,0.39164,-0.12074,-0.59998,-0.38394,104.70319,-0.47352,0.61082,0.00123,-0.00518,0.79175,1,0,
06.29 11:26:27:531,1975,0.08231,-0.08265,9.81398,0.00000,0.00000,-2525397680142175760794213416960.00000,0.38767,-0.12123,-0.60101,-0.38472,104.70242,-0.47301,0.61082,0.00122,-0.00518,0.79175,1,0,
06.29 11:26:27:540,1976,0.07050,-0.06722,9.81279,0.00000,0.00000,-2525397680142175760794213416960.00000,0.38915,-0.12176,-0.59950,-0.38484,104.70441,-0.47283,0.61081,0.00122,-0.00518,0.79176,1,0,
06.29 11:26:27:550,1977,0.09179,-0.08155,9.81279,0.00000,0.00000,-2525397680142175760794213416960.00000,0.38767,-0.12224,-0.60051,-0.38442,104.70534,-0.47401,0.61080,0.00123,-0.00518,0.79177,1,0,
06.29 11:26:27:561,1978,0.06586,-0.05827,9.82916,0.00000,0.00000,-2525397680142175760794213416960.00000,0.38915,-0.12028,-0.59850,-0.38468,104.70567,-0.47439,0.61080,0.00123,-0.00519,0.79177,1,0,
06.29 11:26:27:571,1979,0.09084,-0.05980,9.83512,0.00000,0.00000,-2525397680142175760794213416960.00000,0.38865,-0.12127,-0.59901,-0.38530,104.70141,-0.47341,0.61083,0.00122,-0.00519,0.79174,1,0,
06.29 11:26:27:581,1980,0.07564,-0.07071,9.82091,0.00000,0.00000,-2525397680142175760794213416960.00000,0.38667,-0.12127,-0.59902,-0.38503,104.69904,-0.47291,0.61085,0.00122,-0.00518,0.79173,1,0,
06.29 11:26:27:590,1981,0.08439,-0.06734,9.82170,0.00000,0.00000,-2525397680142175760794213416960.00000,0.38915,-0.12378,-0.59802,-0.38464,104.70000,-0.47281,0.61084,0.00122,-0.00518,0.79174,1,0,
06.29 11:26:27:601,1982,0.07586,-0.07461,9.81784,0.00000,0.00000,-2525397680142175760794213416960.00000,0.38717,-0.12127,-0.59902,-0.38514,104.70016,-0.47339,0.61084,0.00122,-0.00518,0.79174,1,0,
06.29 11:26:27:611,1983,0.09121,-0.06899,9.81684,0.00000,0.00000,-2525397680142175760794213416960.00000,0.38667,-0.12326,-0.59953,-0.38437,104.69784,-0.47311,0.61085,0.00122,-0.00518,0.79173,1,0,
06.29 11:26:27:620,1984,0.07127,-0.07554,9.82246,0.00000,0.00000,-2525397680142175760794213416960.00000,0.39016,-0.12371,-0.60149,-0.38390,104.70023,-0.47248,0.61084,0.00122,-0.00517,0.79174,1,0,
06.29 11:26:27:630,1985,0.10208,-0.07406,9.81906,0.00000,0.00000,-2525397680142175760794213416960.00000,0.38964,-0.12227,-0.59851,-0.38410,104.69947,-0.47119,0.61084,0.00121,-0.00517,0.79173,1,0,
06.29 11:26:27:640,1986,0.09268,-0.07740,9.82292,0.00000,0.00000,-2525397680142175760794213416960.00000,0.38617,-0.12178,-0.59853,-0.38404,104.69908,-0.47036,0.61084,0.00120,-0.00516,0.79173,1,0,
06.29 11:26:27:651,1987,0.07951,-0.06077,9.80516,0.00000,0.00000,-2525397680142175760794213416960.00000,0.39014,-0.12177,-0.59850,-0.38397,104.70229,-0.47025,0.61082,0.00120,-0.00516,0.79175,1,0,
06.29 11:26:27:661,1988,0.08764,-0.05889,9.81636,0.00000,0.00000,-2525397680142175760794213416960.00000,0.38816,-0.12375,-0.60002,-0.38411,104.70558,-0.46969,0.61080,0.00120,-0.00516,0.79177,1,0,
06.29 11:26:27:671,1989,0.09527,-0.07995,9.81167,0.00000,0.00000,-2525397680142175760794213416960.00000,0.38865,-0.12427,-0.59852,-0.38394,104.70657,-0.46935,0.61079,0.00120,-0.00515,0.79177,1,0,
06.29 11:26:27:681,1990,0.08875,-0.06046,9.82151,0.00000,0.00000,-2525397680142175760794213416960.00000,0.38964,-0.12228,-0.59801,-0.38274,104.70746,-0.46932,0.61079,0.00120,-0.00515,0.79178,1,0,
06.29 11:26:27:691,1991,0.08389,-0.07238,9.82325,0.00000,0.00000,-2525397680142175760794213416960.00000,0.38964,-0.12178,-0.59801,-0.38375,104.70822,-0.46886,0.61078,0.00119,-0.00515,0.79178,1,0,
06.29 11:26:27:700,1992,0.08830,-0.06339,9.80854,0.00000,0.00000,-2525397680142175760794213416960.00000,0.38767,-0.12425,-0.60002,-0.38325,104.70448,-0.46814,0.61081,0.00119,-0.00514,0.79176,1,0,
06.29 11:26:27:711,1993,0.08289,-0.06054,9.80423,0.00000,0.00000,-2525397680142175760794213416960.00000,0.38617,-0.12227,-0.59903,-0.38125,104.70413,-0.46706,0.61081,0.00120,-0.00512,0.79176,1,0,
06.29 11:26:27:721,1994,0.07395,-0.06921,9.82020,0.00000,0.00000,-2525397680142175760794213416960.00000,0.38964,-0.12128,-0.59850,-0.38099,104.70479,-0.46774,0.61081,0.00120,-0.00513,0.79176,1,0,
06.29 11:26:27:731,1995,0.09100,-0.06974,9.82094,0.00000,0.00000,-2525397680142175760794213416960.00000,0.38766,-0.12280,-0.59753,-0.38062,104.70275,-0.46843,0.61082,0.00121,-0.00513,0.79175,1,0,
06.29 11:26:27:741,1996,0.09318,-0.05688,9.83391,0.00000,0.00000,-2525397680142175760794213416960.00000,0.38914,-0.12030,-0.59751,-0.38118,104.70074,-0.46893,0.61083,0.00121,-0.00513,0.79174,1,0,
06.29 11:26:27:751,1997,0.09028,-0.06988,9.80931,0.00000,0.00000,-2525397680142175760794213416960.00000,0.38766,-0.12329,-0.59803,-0.38147,104.70590,-0.46815,0.61080,0.00120,-0.00513,0.79177,1,0,
06.29 11:26:27:760,1998,0.08899,-0.07832,9.81837,0.00000,0.00000,-2525397680142175760794213416960.00000,0.38717,-0.12277,-0.59903,-0.38176,104.70888,-0.46766,0.61078,0.00120,-0.00513,0.79179,1,0,
06.29 11:26:27:771,1999,0.07762,-0.07242,9.82146,0.00000,0.00000,-2525397680142175760794213416960.00000,0.38767,-0.12224,-0.60051,-0.38229,104.71043,-0.46772,0.61077,0.00119,-0.00513,0.79179,1,0,
06.29 11:26:27:780,2000,0.07878,-0.07312,9.81286,0.00000,0.00000,-2525397680142175760794213416960.00000,0.38817,-0.12324,-0.60051,-0.38308,104.71032,-0.46733,0.61077,0.00119,-0.00514,0.79179,1,0,
06.29 11:26:27:791,2001,0.08176,-0.06171,9.81567,0.00000,0.00000,-2525397680142175760794213416960.00000,0.38865,-0.12077,-0.59901,-0.38861,104.70101,-0.46681,0.61083,0.00115,-0.00517,0.79174,1,0,
06.29 11:26:27:801,2002,0.08359,-0.08628,9.81949,0.00000,0.00000,-2525397680142175760794213416960.00000,0.38915,-0.12325,-0.59951,-0.38927,104.69614,-0.46679,0.61087,0.00115,-0.00518,0.79172,1,0,
06.29 11:26:27:810,2003,0.07086,-0.06808,9.83224,0.00000,0.00000,-2525397680142175760794213416960.00000,0.38817,-0.12124,-0.60051,-0.39043,104.69794,-0.46638,0.61085,0.00114,-0.00518,0.79173,1,0,
06.29 11:26:27:821,2004,0.08226,-0.06728,9.81021,0.00000,0.00000,-2525397680142175760794213416960.00000,0.38965,-0.12275,-0.59950,-0.39240,104.69903,-0.46642,0.61085,0.00113,-0.00520,0.79173,1,0,
06.29 11:26:27:831,2005,0.07079,-0.05902,9.83279,0.00000,0.00000,-2525397680142175760794213416960.00000,0.38916,-0.12224,-0.60050,-0.39179,104.70161,-0.46550,0.61083,0.00113,-0.00519,0.79175,1,0,
06.29 11:26:27:840,2006,0.07582,-0.06525,9.82216,0.00000,0.00000,-2525397680142175760794213416960.00000,0.38865,-0.12229,-0.59802,-0.39138,104.70338,-0.46472,0.61082,0.00112,-0.00518,0.79176,1,0,
06.29 11:26:27:850,2007,0.09799,-0.07788,9.82259,0.00000,0.00000,-2525397680142175760794213416960.00000,0.38717,-0.12277,-0.59903,-0.39257,104.70351,-0.46437,0.61081,0.00112,-0.00519,0.79176,1,0,
06.29 11:26:27:860,2008,0.07996,-0.07637,9.81753,0.00000,0.00000,-2525397680142175760794213416960.00000,0.38766,-0.12228,-0.59852,-0.39216,104.70367,-0.46444,0.61081,0.00112,-0.00519,0.79176,1,0,
06.29 11:26:27:870,2009,0.08487,-0.08832,9.81174,0.00000,0.00000,-2525397680142175760794213416960.00000,0.38815,-0.12131,-0.59702,-0.39325,104.70296,-0.46304,0.61082,0.00110,-0.00519,0.79175,1,0,
06.29 11:26:27:880,2010,0.07929,-0.07485,9.82587,0.00000,0.00000,-2525397680142175760794213416960.00000,0.38866,-0.12075,-0.60000,-0.39442,104.70190,-0.46416,0.61083,0.00110,-0.00520,0.79175,1,0,
06.29 11:26:27:891,2011,0.10198,-0.07002,9.82335,0.00000,0.00000,-2525397680142175760794213416960.00000,0.38964,-0.12029,-0.59800,-0.39536,104.70133,-0.46366,0.61083,0.00110,-0.00520,0.79174,1,0,
06.29 11:26:27:901,2012,0.08041,-0.05874,9.81665,0.00000,0.00000,-2525397680142175760794213416960.00000,0.38666,-0.12281,-0.59704,-0.39352,104.70208,-0.46311,0.61082,0.00110,-0.00519,0.79175,1,0,
06.29 11:26:27:910,2013,0.08099,-0.06107,9.82733,0.00000,0.00000,-2525397680142175760794213416960.00000,0.38815,-0.12330,-0.59753,-0.39214,104.70136,-0.46284,0.61083,0.00111,-0.00518,0.79174,1,0,
06.29 11:26:27:921,2014,0.07358,-0.05331,9.81803,0.00000,0.00000,-2525397680142175760794213416960.00000,0.38965,-0.12324,-0.60000,-0.39226,104.69949,-0.46205,0.61084,0.00110,-0.00517,0.79173,1,0,
06.29 11:26:27:930,2015,0.09257,-0.08959,9.81858,0.00000,0.00000,-2525397680142175760794213416960.00000,0.38668,-0.12324,-0.60052,-0.39292,104.70025,-0.46298,0.61084,0.00110,-0.00518,0.79174,1,0,
06.29 11:26:27:940,2016,0.07330,-0.07640,9.81741,0.00000,0.00000,-2525397680142175760794213416960.00000,0.38966,-0.12322,-0.60100,-0.39334,104.70211,-0.46267,0.61082,0.00110,-0.00518,0.79175,1,0,
06.29 11:26:27:951,2017,0.07986,-0.06863,9.81894,0.00000,0.00000,-2525397680142175760794213416960.00000,0.38915,-0.12428,-0.59802,-0.39272,104.70177,-0.46221,0.61083,0.00110,-0.00518,0.79175,1,0,
06.29 11:26:27:960,2018,0.08691,-0.07497,9.81691,0.00000,0.00000,-2525397680142175760794213416960.00000,0.38865,-0.12078,-0.59851,-0.39247,104.70217,-0.46198,0.61082,0.00110,-0.00517,0.79175,1,0,
06.29 11:26:27:971,2019,0.08864,-0.08932,9.81913,0.00000,0.00000,-2525397680142175760794213416960.00000,0.38816,-0.12176,-0.59951,-0.39137,104.69830,-0.46280,0.61085,0.00111,-0.00517,0.79173,1,0,
06.29 11:26:27:980,2020,0.09194,-0.05690,9.81956,0.00000,0.00000,-2525397680142175760794213416960.00000,0.38866,-0.12325,-0.60001,-0.39106,104.69808,-0.46345,0.61085,0.00112,-0.00517,0.79173,1,0,
06.29 11:26:27:991,2021,0.08201,-0.05258,9.81159,0.00000,0.00000,-2525397680142175760794213416960.00000,0.39015,-0.12224,-0.60000,-0.39160,104.69923,-0.46347,0.61084,0.00111,-0.00518,0.79173,1,0,
06.29 11:26:27:999,2022,0.07451,-0.05883,9.82146,0.00000,0.00000,-2525397680142175760794213416960.00000,0.38817,-0.12273,-0.60101,-0.39135,104.69626,-0.46360,0.61086,0.00112,-0.00518,0.79172,1,0,
06.29 11:26:28:009,2023,0.07298,-0.08843,9.82373,0.00000,0.00000,-2525397680142175760794213416960.00000,0.38765,-0.12282,-0.59653,-0.39118,104.69880,-0.46419,0.61085,0.00112,-0.00518,0.79173,1,0,
06.29 11:26:28:021,2024,0.09824,-0.06536,9.82681,0.00000,0.00000,-2525397680142175760794213416960.00000,0.38618,-0.12273,-0.60102,-0.38979,104.69984,-0.46299,0.61084,0.00112,-0.00516,0.79174,1,0,
06.29 11:26:28:031,2025,0.08289,-0.08041,9.82046,0.00000,0.00000,-2525397680142175760794213416960.00000,0.38816,-0.12228,-0.59852,-0.38865,104.69993,-0.46376,0.61084,0.00113,-0.00516,0.79174,1,0,
06.29 11:26:28:041,2026,0.08338,-0.08094,9.82108,0.00000,0.00000,-2525397680142175760794213416960.00000,0.38766,-0.12077,-0.59902,-0.38903,104.69995,-0.46376,0.61084,0.00113,-0.00516,0.79174,1,0,
06.29 11:26:28:050,2027,0.08623,-0.06362,9.82580,0.00000,0.00000,-2525397680142175760794213416960.00000,0.38716,-0.12079,-0.59802,-0.38769,104.69724,-0.46392,0.61086,0.00114,-0.00515,0.79172,1,0,
06.29 11:26:28:061,2028,0.08199,-0.06301,9.81905,0.00000,0.00000,-2525397680142175760794213416960.00000,0.38916,-0.12175,-0.60000,-0.38774,104.69599,-0.46363,0.61087,0.00114,-0.00515,0.79172,1,0,
06.29 11:26:28:071,2029,0.08061,-0.05233,9.81777,0.00000,0.00000,-2525397680142175760794213416960.00000,0.38815,-0.12280,-0.59753,-0.38643,104.69460,-0.46324,0.61088,0.00114,-0.00514,0.79171,1,0,
06.29 11:26:28:080,2030,0.08563,-0.07506,9.81538,0.00000,0.00000,-2525397680142175760794213416960.00000,0.38916,-0.12174,-0.60050,-0.38764,104.69477,-0.46285,0.61087,0.00113,-0.00515,0.79171,1,0,
06.29 11:26:28:090,2031,0.08826,-0.05195,9.81910,0.00000,0.00000,-2525397680142175760794213416960.00000,0.38866,-0.12226,-0.59951,-0.38795,104.69394,-0.46244,0.61088,0.00113,-0.00515,0.79171,1,0,
06.29 11:26:28:101,2032,0.08069,-0.06480,9.81808,0.00000,0.00000,-2525397680142175760794213416960.00000,0.38765,-0.12080,-0.59752,-0.38821,104.69463,-0.46232,0.61088,0.00112,-0.00515,0.79171,1,0,
06.29 11:26:28:111,2033,0.06885,-0.07387,9.82809,0.00000,0.00000,-2525397680142175760794213416960.00000,0.38814,-0.12134,-0.59553,-0.38909,104.69559,-0.46246,0.61087,0.00112,-0.00515,0.79171,1,0,
06.29 11:26:28:120,2034,0.08569,-0.07773,9.81207,0.00000,0.00000,-2525397680142175760794213416960.00000,0.38815,-0.12129,-0.59802,-0.38887,104.69661,-0.46265,0.61086,0.00112,-0.00515,0.79172,1,0,
06.29 11:26:28:130,2035,0.08160,-0.07607,9.80902,0.00000,0.00000,-2525397680142175760794213416960.00000,0.38766,-0.12330,-0.59753,-0.38982,104.69756,-0.46263,0.61086,0.00112,-0.00516,0.79172,1,0,
06.29 11:26:28:141,2036,0.08117,-0.06744,9.82146,0.00000,0.00000,-2525397680142175760794213416960.00000,0.39014,-0.12126,-0.59900,-0.38981,104.69782,-0.46257,0.61085,0.00112,-0.00516,0.79173,1,0,
06.29 11:26:28:149,2037,0.07093,-0.07887,9.82492,0.00000,0.00000,-2525397680142175760794213416960.00000,0.38866,-0.12424,-0.60002,-0.39015,104.69656,-0.46303,0.61086,0.00112,-0.00516,0.79172,1,0,
06.29 11:26:28:160,2038,0.07192,-0.07068,9.80325,0.00000,0.00000,-2525397680142175760794213416960.00000,0.39065,-0.12023,-0.60048,-0.38918,104.69416,-0.46239,0.61088,0.00112,-0.00515,0.79171,1,0,
06.29 11:26:28:171,2039,0.10737,-0.08528,9.81965,0.00000,0.00000,-2525397680142175760794213416960.00000,0.38816,-0.12176,-0.59951,-0.38862,104.69386,-0.46223,0.61088,0.00112,-0.00515,0.79170,1,0,
06.29 11:26:28:180,2040,0.07679,-0.05938,9.81891,0.00000,0.00000,-2525397680142175760794213416960.00000,0.38667,-0.12278,-0.59853,-0.38866,104.69459,-0.46237,0.61088,0.00112,-0.00515,0.79171,1,0,
06.29 11:26:28:191,2041,0.06482,-0.07867,9.82497,0.00000,0.00000,-2525397680142175760794213416960.00000,0.38816,-0.12227,-0.59902,-0.38944,104.69360,-0.46253,0.61088,0.00112,-0.00516,0.79170,1,0,
06.29 11:26:28:201,2042,0.08097,-0.07024,9.81357,0.00000,0.00000,-2525397680142175760794213416960.00000,0.38766,-0.12228,-0.59852,-0.38986,104.69360,-0.46270,0.61088,0.00112,-0.00516,0.79170,1,0,
06.29 11:26:28:210,2043,0.07895,-0.08275,9.81546,0.00000,0.00000,-2525397680142175760794213416960.00000,0.38717,-0.12224,-0.60052,-0.38983,104.69326,-0.46192,0.61089,0.00111,-0.00516,0.79170,1,0,
06.29 11:26:28:221,2044,0.07343,-0.08020,9.80189,0.00000,0.00000,-2525397680142175760794213416960.00000,0.38717,-0.12476,-0.59953,-0.38988,104.69360,-0.46177,0.61088,0.00111,-0.00516,0.79170,1,0,
06.29 11:26:28:230,2045,0.08767,-0.06985,9.82118,0.00000,0.00000,-2525397680142175760794213416960.00000,0.38766,-0.12078,-0.59852,-0.39082,104.70296,-0.46158,0.61082,0.00111,-0.00516,0.79175,1,0,
06.29 11:26:28:241,2046,0.07160,-0.07365,9.81820,0.00000,0.00000,-2525397680142175760794213416960.00000,0.38767,-0.12175,-0.60001,-0.39105,104.70342,-0.46105,0.61082,0.00110,-0.00516,0.79176,1,0,
06.29 11:26:28:250,2047,0.08860,-0.06413,9.81450,0.00000,0.00000,-2525397680142175760794213416960.00000,0.38864,-0.12334,-0.59553,-0.39013,104.70290,-0.46105,0.61082,0.00111,-0.00515,0.79175,1,0,
06.29 11:26:28:260,2048,0.06656,-0.08509,9.82158,0.00000,0.00000,-2525397680142175760794213416960.00000,0.38915,-0.12129,-0.59801,-0.38861,104.70415,-0.46040,0.61081,0.00111,-0.00514,0.79176,1,0,
06.29 11:26:28:271,2049,0.07946,-0.07965,9.81629,0.00000,0.00000,-2525397680142175760794213416960.00000,0.38965,-0.12325,-0.59951,-0.38873,104.70499,-0.46043,0.61080,0.00111,-0.00514,0.79176,1,0,
06.29 11:26:28:281,2050,0.07261,-0.06288,9.82545,0.00000,0.00000,-2525397680142175760794213416960.00000,0.38617,-0.12080,-0.59803,-0.38920,104.70461,-0.45950,0.61081,0.00110,-0.00514,0.79176,1,0,
06.29 11:26:28:291,2051,0.07892,-0.07800,9.81131,0.00000,0.00000,-2525397680142175760794213416960.00000,0.38915,-0.11826,-0.59949,-0.38910,104.70400,-0.45920,0.61081,0.00110,-0.00514,0.79176,1,0,
06.29 11:26:28:300,2052,0.08626,-0.05156,9.81281,0.00000,0.00000,-2525397680142175760794213416960.00000,0.38667,-0.12126,-0.59952,-0.38931,104.70567,-0.45902,0.61080,0.00110,-0.00514,0.79177,1,0,
06.29 11:26:28:310,2053,0.08533,-0.06110,9.81622,0.00000,0.00000,-2525397680142175760794213416960.00000,0.38965,-0.12325,-0.59951,-0.38955,104.70199,-0.45997,0.61082,0.00110,-0.00514,0.79175,1,0,
06.29 11:26:28:320,2054,0.09760,-0.09005,9.82614,0.00000,0.00000,-2525397680142175760794213416960.00000,0.39014,-0.12176,-0.59900,-0.38807,104.70117,-0.45954,0.61083,0.00111,-0.00513,0.79174,1,0,
06.29 11:26:28:331,2055,0.08252,-0.08275,9.83420,0.00000,0.00000,-2525397680142175760794213416960.00000,0.38716,-0.12280,-0.59753,-0.38786,104.70139,-0.45709,0.61083,0.00109,-0.00512,0.79175,1,0,
06.29 11:26:28:358,2056,0.09895,-0.06929,9.82115,0.00000,0.00000,-2525397680142175760794213416960.00000,0.38766,-0.12027,-0.59901,-0.38790,104.70111,-0.45757,0.61083,0.00109,-0.00512,0.79174,1,0,
06.29 11:26:28:360,2057,0.08305,-0.09163,9.81929,0.00000,0.00000,-2525397680142175760794213416960.00000,0.38666,-0.12230,-0.59754,-0.38755,104.70239,-0.45863,0.61082,0.00110,-0.00512,0.79175,1,0,
06.29 11:26:28:364,2058,0.06862,-0.07769,9.81507,0.00000,0.00000,-2525397680142175760794213416960.00000,0.38915,-0.12229,-0.59801,-0.38813,104.70370,-0.45766,0.61081,0.00109,-0.00512,0.79176,1,0,
06.29 11:26:28:369,2059,0.05634,-0.07999,9.82244,0.00000,0.00000,-2525397680142175760794213416960.00000,0.38866,-0.12226,-0.59951,-0.38834,104.70083,-0.45714,0.61083,0.00109,-0.00512,0.79174,1,0,
06.29 11:26:28:379,2060,0.09723,-0.08171,9.82821,0.00000,0.00000,-2525397680142175760794213416960.00000,0.38667,-0.12426,-0.59953,-0.38962,104.70149,-0.45804,0.61083,0.00109,-0.00513,0.79175,1,0,
06.29 11:26:28:389,2061,0.11393,-0.07282,9.81028,0.00000,0.00000,-2525397680142175760794213416960.00000,0.38866,-0.12024,-0.60050,-0.38832,104.70251,-0.45808,0.61082,0.00110,-0.00512,0.79175,1,0,
06.29 11:26:28:401,2062,0.08266,-0.06464,9.82497,0.00000,0.00000,-2525397680142175760794213416960.00000,0.38618,-0.12176,-0.59953,-0.38655,104.70409,-0.45823,0.61081,0.00111,-0.00511,0.79176,1,0,
06.29 11:26:28:411,2063,0.08997,-0.06949,9.82359,0.00000,0.00000,-2525397680142175760794213416960.00000,0.38816,-0.12225,-0.60001,-0.38646,104.70454,-0.45833,0.61081,0.00111,-0.00511,0.79176,1,0,
06.29 11:26:28:421,2064,0.07928,-0.06820,9.81898,0.00000,0.00000,-2525397680142175760794213416960.00000,0.38815,-0.12179,-0.59802,-0.38622,104.70579,-0.45891,0.61080,0.00111,-0.00511,0.79177,1,0,
06.29 11:26:28:430,2065,0.09156,-0.08028,9.81612,0.00000,0.00000,-2525397680142175760794213416960.00000,0.38616,-0.12182,-0.59704,-0.38607,104.70465,-0.45830,0.61081,0.00111,-0.00511,0.79176,1,0,
06.29 11:26:28:441,2066,0.08073,-0.06146,9.81958,0.00000,0.00000,-2525397680142175760794213416960.00000,0.39015,-0.12275,-0.59950,-0.38515,104.70304,-0.45889,0.61082,0.00112,-0.00511,0.79175,1,0,
06.29 11:26:28:450,2067,0.07868,-0.07119,9.82752,0.00000,0.00000,-2525397680142175760794213416960.00000,0.38716,-0.12181,-0.59703,-0.38479,104.70372,-0.45807,0.61081,0.00111,-0.00510,0.79176,1,0,
06.29 11:26:28:459,2068,0.10131,-0.07999,9.81925,0.00000,0.00000,-2525397680142175760794213416960.00000,0.38865,-0.12180,-0.59752,-0.38518,104.70407,-0.45859,0.61081,0.00112,-0.00511,0.79176,1,0,
06.29 11:26:28:471,2069,0.07668,-0.08437,9.82857,0.00000,0.00000,-2525397680142175760794213416960.00000,0.39163,-0.12125,-0.59948,-0.38612,104.70505,-0.45793,0.61080,0.00111,-0.00511,0.79176,1,0,
06.29 11:26:28:481,2070,0.08994,-0.04671,9.82065,0.00000,0.00000,-2525397680142175760794213416960.00000,0.38716,-0.12381,-0.59704,-0.38782,104.70384,-0.45699,0.61081,0.00109,-0.00512,0.79176,1,0,
06.29 11:26:28:491,2071,0.08309,-0.07240,9.81591,0.00000,0.00000,-2525397680142175760794213416960.00000,0.38866,-0.12175,-0.60001,-0.38817,104.70501,-0.45737,0.61080,0.00109,-0.00512,0.79176,1,0,
06.29 11:26:28:501,2072,0.08185,-0.06758,9.81202,0.00000,0.00000,-2525397680142175760794213416960.00000,0.38816,-0.12225,-0.60001,-0.38834,104.70691,-0.45783,0.61079,0.00109,-0.00512,0.79177,1,0,
06.29 11:26:28:510,2073,0.08036,-0.06217,9.80093,0.00000,0.00000,-2525397680142175760794213416960.00000,0.38817,-0.12122,-0.60150,-0.38826,104.70605,-0.45799,0.61080,0.00110,-0.00512,0.79177,1,0,
06.29 11:26:28:520,2074,0.07875,-0.07779,9.80044,0.00000,0.00000,-2525397680142175760794213416960.00000,0.38816,-0.12376,-0.59952,-0.38926,104.70688,-0.45810,0.61079,0.00109,-0.00513,0.79177,1,0,
06.29 11:26:28:530,2075,0.07780,-0.09162,9.80992,0.00000,0.00000,-2525397680142175760794213416960.00000,0.38618,-0.12126,-0.60002,-0.38998,104.70781,-0.45819,0.61078,0.00109,-0.00514,0.79178,1,0,
06.29 11:26:28:540,2076,0.06224,-0.07229,9.81751,0.00000,0.00000,-2525397680142175760794213416960.00000,0.38718,-0.12171,-0.60201,-0.38959,104.70493,-0.45841,0.61080,0.00109,-0.00514,0.79176,1,0,
06.29 11:26:28:551,2077,0.07575,-0.07110,9.81987,0.00000,0.00000,-2525397680142175760794213416960.00000,0.38964,-0.12130,-0.59751,-0.39042,104.70293,-0.45831,0.61082,0.00109,-0.00514,0.79175,1,0,
06.29 11:26:28:560,2078,0.07497,-0.08311,9.80625,0.00000,0.00000,-2525397680142175760794213416960.00000,0.38816,-0.12277,-0.59902,-0.39195,104.70528,-0.45790,0.61080,0.00107,-0.00515,0.79177,1,0,
06.29 11:26:28:571,2079,0.07638,-0.07436,9.81353,0.00000,0.00000,-2525397680142175760794213416960.00000,0.38766,-0.12078,-0.59852,-0.39122,104.70497,-0.45808,0.61080,0.00108,-0.00514,0.79176,1,0,
06.29 11:26:28:580,2080,0.10792,-0.08279,9.81665,0.00000,0.00000,-2525397680142175760794213416960.00000,0.39014,-0.12429,-0.59751,-0.39105,104.70174,-0.45819,0.61083,0.00108,-0.00514,0.79175,1,0,
06.29 11:26:28:590,2081,0.09241,-0.05197,9.80869,0.00000,0.00000,-2525397680142175760794213416960.00000,0.38766,-0.12027,-0.59901,-0.39021,104.70484,-0.45698,0.61081,0.00108,-0.00513,0.79176,1,0,
06.29 11:26:28:599,2082,0.07663,-0.06077,9.80799,0.00000,0.00000,-2525397680142175760794213416960.00000,0.38915,-0.12177,-0.59901,-0.38978,104.70034,-0.45662,0.61084,0.00108,-0.00513,0.79174,1,0,
06.29 11:26:28:609,2083,0.08609,-0.06147,9.80938,0.00000,0.00000,-2525397680142175760794213416960.00000,0.38767,-0.12376,-0.59952,-0.38932,104.69765,-0.45696,0.61085,0.00108,-0.00513,0.79173,1,0,
06.29 11:26:28:621,2084,0.07236,-0.06481,9.82952,0.00000,0.00000,-2525397680142175760794213416960.00000,0.38767,-0.12024,-0.60051,-0.38866,104.69411,-0.45714,0.61088,0.00109,-0.00512,0.79171,1,0,
06.29 11:26:28:631,2085,0.06811,-0.06231,9.81722,0.00000,0.00000,-2525397680142175760794213416960.00000,0.38716,-0.12030,-0.59752,-0.38795,104.69099,-0.45637,0.61090,0.00108,-0.00511,0.79169,1,0,
06.29 11:26:28:641,2086,0.08820,-0.04771,9.81760,0.00000,0.00000,-2525397680142175760794213416960.00000,0.38716,-0.12128,-0.59852,-0.38741,104.68919,-0.45604,0.61091,0.00109,-0.00511,0.79168,1,0,
06.29 11:26:28:651,2087,0.08555,-0.06355,9.80528,0.00000,0.00000,-2525397680142175760794213416960.00000,0.38815,-0.12330,-0.59753,-0.38613,104.68640,-0.45578,0.61093,0.00109,-0.00510,0.79167,1,0,
06.29 11:26:28:660,2088,0.07318,-0.06202,9.82118,0.00000,0.00000,-2525397680142175760794213416960.00000,0.38717,-0.12074,-0.60051,-0.38687,104.68612,-0.45598,0.61093,0.00109,-0.00510,0.79166,1,0,
06.29 11:26:28:670,2089,0.08490,-0.06304,9.81545,0.00000,0.00000,-2525397680142175760794213416960.00000,0.38866,-0.12276,-0.59951,-0.38795,104.68436,-0.45600,0.61095,0.00108,-0.00511,0.79165,1,0,
06.29 11:26:28:680,2090,0.07380,-0.06824,9.81376,0.00000,0.00000,-2525397680142175760794213416960.00000,0.38965,-0.12327,-0.59851,-0.38797,104.68461,-0.45672,0.61094,0.00109,-0.00512,0.79166,1,0,
06.29 11:26:28:690,2091,0.06588,-0.08521,9.82416,0.00000,0.00000,-2525397680142175760794213416960.00000,0.38765,-0.12431,-0.59704,-0.38741,104.68368,-0.45672,0.61095,0.00109,-0.00511,0.79165,1,0,
06.29 11:26:28:701,2092,0.08192,-0.06984,9.82075,0.00000,0.00000,-2525397680142175760794213416960.00000,0.38865,-0.12330,-0.59752,-0.38685,104.68585,-0.45769,0.61094,0.00110,-0.00511,0.79166,1,0,
06.29 11:26:28:711,2093,0.08065,-0.07766,9.81934,0.00000,0.00000,-2525397680142175760794213416960.00000,0.38467,-0.12133,-0.59655,-0.38681,104.68503,-0.45733,0.61094,0.00110,-0.00511,0.79166,1,0,
06.29 11:26:28:720,2094,0.09261,-0.06551,9.82440,0.00000,0.00000,-2525397680142175760794213416960.00000,0.38765,-0.12131,-0.59703,-0.38669,104.68633,-0.45764,0.61093,0.00110,-0.00511,0.79166,1,0,
06.29 11:26:28:730,2095,0.07929,-0.05847,9.83019,0.00000,0.00000,-2525397680142175760794213416960.00000,0.38914,-0.12330,-0.59702,-0.38755,104.68384,-0.45793,0.61095,0.00110,-0.00512,0.79165,1,0,
06.29 11:26:28:739,2096,0.09507,-0.07077,9.81770,0.00000,0.00000,-2525397680142175760794213416960.00000,0.38616,-0.12431,-0.59705,-0.38660,104.68498,-0.45740,0.61094,0.00110,-0.00511,0.79166,1,0,
06.29 11:26:28:750,2097,0.07119,-0.06504,9.81507,0.00000,0.00000,-2525397680142175760794213416960.00000,0.38865,-0.12430,-0.59753,-0.38583,104.68443,-0.45725,0.61095,0.00110,-0.00510,0.79165,1,0,
06.29 11:26:28:760,2098,0.08856,-0.05986,9.80422,0.00000,0.00000,-2525397680142175760794213416960.00000,0.38966,-0.12172,-0.60099,-0.38474,104.68639,-0.45666,0.61093,0.00110,-0.00509,0.79167,1,0,
06.29 11:26:28:769,2099,0.06898,-0.05966,9.81453,0.00000,0.00000,-2525397680142175760794213416960.00000,0.39015,-0.12275,-0.59950,-0.38502,104.68562,-0.45663,0.61094,0.00110,-0.00509,0.79166,1,0,
06.29 11:26:28:781,2100,0.08033,-0.06841,9.81686,0.00000,0.00000,-2525397680142175760794213416960.00000,0.38816,-0.12276,-0.59952,-0.38498,104.68792,-0.45753,0.61092,0.00111,-0.00510,0.79167,1,0,
06.29 11:26:28:791,2101,0.07979,-0.07384,9.82175,0.00000,0.00000,-2525397680142175760794213416960.00000,0.38964,-0.12227,-0.59851,-0.38423,104.68732,-0.45743,0.61093,0.00111,-0.00509,0.79167,1,0,
06.29 11:26:28:800,2102,0.11037,-0.06189,9.80883,0.00000,0.00000,-2525397680142175760794213416960.00000,0.38766,-0.12478,-0.59853,-0.38373,104.68625,-0.45729,0.61093,0.00111,-0.00509,0.79166,1,0,
06.29 11:26:28:810,2103,0.10085,-0.07775,9.81717,0.00000,0.00000,-2525397680142175760794213416960.00000,0.38469,-0.12276,-0.60004,-0.38249,104.68659,-0.45805,0.61093,0.00113,-0.00508,0.79167,1,0,
06.29 11:26:28:820,2104,0.09369,-0.07800,9.81405,0.00000,0.00000,-2525397680142175760794213416960.00000,0.38965,-0.12175,-0.59950,-0.38253,104.68761,-0.45783,0.61092,0.00112,-0.00508,0.79167,1,0,
06.29 11:26:28:830,2105,0.07118,-0.07021,9.82235,0.00000,0.00000,-2525397680142175760794213416960.00000,0.38816,-0.12327,-0.59902,-0.38299,104.68901,-0.45736,0.61091,0.00112,-0.00508,0.79168,1,0,
06.29 11:26:28:839,2106,0.08798,-0.08355,9.82599,0.00000,0.00000,-2525397680142175760794213416960.00000,0.38965,-0.12075,-0.59999,-0.38228,104.68907,-0.45733,0.61091,0.00112,-0.00508,0.79168,1,0,
06.29 11:26:28:851,2107,0.07071,-0.05917,9.81081,0.00000,0.00000,-2525397680142175760794213416960.00000,0.38815,-0.12182,-0.59653,-0.38332,104.68726,-0.45651,0.61093,0.00111,-0.00508,0.79167,1,0,
06.29 11:26:28:861,2108,0.07239,-0.08417,9.80380,0.00000,0.00000,-2525397680142175760794213416960.00000,0.38865,-0.12330,-0.59752,-0.38467,104.68679,-0.45594,0.61093,0.00110,-0.00509,0.79167,1,0,
06.29 11:26:28:871,2109,0.08945,-0.07071,9.83193,0.00000,0.00000,-2525397680142175760794213416960.00000,0.38816,-0.12126,-0.59951,-0.38568,104.68652,-0.45547,0.61093,0.00109,-0.00509,0.79167,1,0,
06.29 11:26:28:881,2110,0.08374,-0.06033,9.81023,0.00000,0.00000,-2525397680142175760794213416960.00000,0.38767,-0.12226,-0.59952,-0.38645,104.68345,-0.45579,0.61095,0.00109,-0.00510,0.79165,1,0,
06.29 11:26:28:890,2111,0.08182,-0.06070,9.81283,0.00000,0.00000,-2525397680142175760794213416960.00000,0.38867,-0.12120,-0.60249,-0.38614,104.68391,-0.45618,0.61095,0.00109,-0.00510,0.79165,1,0,
06.29 11:26:28:900,2112,0.08104,-0.06953,9.82068,0.00000,0.00000,-2525397680142175760794213416960.00000,0.38567,-0.12329,-0.59804,-0.38584,104.68344,-0.45669,0.61095,0.00110,-0.00510,0.79165,1,0,
06.29 11:26:28:910,2113,0.08104,-0.07423,9.81555,0.00000,0.00000,-2525397680142175760794213416960.00000,0.38867,-0.12172,-0.60150,-0.38606,104.68575,-0.45706,0.61094,0.00110,-0.00510,0.79166,1,0,
06.29 11:26:28:920,2114,0.10104,-0.07121,9.82256,0.00000,0.00000,-2525397680142175760794213416960.00000,0.38865,-0.12278,-0.59852,-0.38778,104.68526,-0.45620,0.61094,0.00108,-0.00511,0.79166,1,0,
06.29 11:26:28:931,2115,0.07088,-0.06208,9.81016,0.00000,0.00000,-2525397680142175760794213416960.00000,0.38715,-0.12234,-0.59554,-0.38792,104.68594,-0.45553,0.61094,0.00108,-0.00511,0.79166,1,0,
06.29 11:26:28:941,2116,0.06544,-0.08486,9.81522,0.00000,0.00000,-2525397680142175760794213416960.00000,0.38815,-0.12130,-0.59752,-0.38796,104.68717,-0.45416,0.61093,0.00107,-0.00510,0.79167,1,0,
06.29 11:26:28:953,2117,0.06011,-0.06874,9.81150,0.00000,0.00000,-2525397680142175760794213416960.00000,0.38767,-0.12276,-0.59952,-0.38780,104.68900,-0.45306,0.61091,0.00106,-0.00509,0.79168,1,0,
06.29 11:26:28:959,2118,0.07585,-0.07315,9.83102,0.00000,0.00000,-2525397680142175760794213416960.00000,0.38717,-0.12277,-0.59903,-0.38813,104.68928,-0.45303,0.61091,0.00106,-0.00510,0.79168,1,0,
06.29 11:26:28:970,2119,0.08263,-0.08085,9.81207,0.00000,0.00000,-2525397680142175760794213416960.00000,0.38617,-0.12078,-0.59903,-0.38861,104.68977,-0.45345,0.61091,0.00106,-0.00510,0.79168,1,0,
06.29 11:26:28:980,2120,0.09273,-0.05996,9.81975,0.00000,0.00000,-2525397680142175760794213416960.00000,0.38816,-0.12076,-0.59951,-0.39007,104.69103,-0.45325,0.61090,0.00105,-0.00511,0.79169,1,0,
06.29 11:26:28:990,2121,0.10062,-0.06372,9.81627,0.00000,0.00000,-2525397680142175760794213416960.00000,0.38718,-0.12023,-0.60101,-0.38940,104.69147,-0.45318,0.61090,0.00106,-0.00511,0.79169,1,0,
06.29 11:26:29:001,2122,0.08659,-0.05441,9.82344,0.00000,0.00000,-2525397680142175760794213416960.00000,0.38766,-0.12128,-0.59852,-0.38901,104.68611,-0.45313,0.61093,0.00106,-0.00510,0.79166,1,0,
06.29 11:26:29:011,2123,0.07827,-0.06681,9.82101,0.00000,0.00000,-2525397680142175760794213416960.00000,0.38666,-0.12079,-0.59803,-0.38712,104.68577,-0.45282,0.61094,0.00106,-0.00509,0.79166,1,0,
06.29 11:26:29:021,2124,0.08358,-0.07369,9.82287,0.00000,0.00000,-2525397680142175760794213416960.00000,0.38915,-0.12076,-0.59950,-0.38594,104.68571,-0.45323,0.61094,0.00107,-0.00508,0.79166,1,0,
06.29 11:26:29:031,2125,0.07524,-0.07292,9.82590,0.00000,0.00000,-2525397680142175760794213416960.00000,0.38767,-0.12175,-0.60001,-0.38576,104.69035,-0.45231,0.61091,0.00107,-0.00508,0.79169,1,0,
06.29 11:26:29:040,2126,0.06855,-0.07632,9.83007,0.00000,0.00000,-2525397680142175760794213416960.00000,0.38914,-0.12180,-0.59751,-0.38610,104.68989,-0.45198,0.61091,0.00106,-0.00508,0.79168,1,0,
06.29 11:26:29:050,2127,0.09283,-0.07065,9.82404,0.00000,0.00000,-2525397680142175760794213416960.00000,0.38766,-0.12177,-0.59902,-0.38497,104.69234,-0.45238,0.61089,0.00107,-0.00507,0.79170,1,0,
06.29 11:26:29:060,2128,0.07769,-0.06601,9.81834,0.00000,0.00000,-2525397680142175760794213416960.00000,0.38719,-0.12368,-0.60351,-0.38614,104.69356,-0.45185,0.61088,0.00106,-0.00508,0.79170,1,0,
06.29 11:26:29:070,2129,0.07644,-0.05662,9.80768,0.00000,0.00000,-2525397680142175760794213416960.00000,0.38815,-0.11930,-0.59751,-0.38524,104.68871,-0.45195,0.61092,0.00107,-0.00507,0.79168,1,0,
06.29 11:26:29:081,2130,0.06864,-0.07080,9.82578,0.00000,0.00000,-2525397680142175760794213416960.00000,0.38718,-0.12120,-0.60250,-0.38406,104.68427,-0.45257,0.61095,0.00108,-0.00507,0.79165,1,0,
06.29 11:26:29:090,2131,0.09493,-0.06998,9.82807,0.00000,0.00000,-2525397680142175760794213416960.00000,0.38967,-0.12070,-0.60248,-0.38376,104.68056,-0.45284,0.61097,0.00108,-0.00507,0.79163,1,0,
06.29 11:26:29:101,2132,0.08310,-0.07417,9.80900,0.00000,0.00000,-2525397680142175760794213416960.00000,0.38865,-0.12278,-0.59852,-0.38397,104.68202,-0.45119,0.61096,0.00107,-0.00506,0.79164,1,0,
06.29 11:26:29:111,2133,0.08838,-0.07271,9.80973,0.00000,0.00000,-2525397680142175760794213416960.00000,0.38767,-0.12074,-0.60051,-0.38368,104.68160,-0.45092,0.61097,0.00107,-0.00505,0.79164,1,0,
06.29 11:26:29:120,2134,0.06767,-0.08356,9.81069,0.00000,0.00000,-2525397680142175760794213416960.00000,0.38816,-0.12225,-0.60001,-0.38400,104.68068,-0.45131,0.61097,0.00107,-0.00506,0.79164,1,0,
06.29 11:26:29:130,2135,0.04619,-0.06470,9.82571,0.00000,0.00000,-2525397680142175760794213416960.00000,0.39015,-0.12175,-0.59950,-0.38483,104.68105,-0.45190,0.61097,0.00107,-0.00507,0.79164,1,0,
06.29 11:26:29:140,2136,0.08754,-0.05157,9.81913,0.00000,0.00000,-2525397680142175760794213416960.00000,0.38867,-0.12323,-0.60101,-0.38465,104.68275,-0.45098,0.61096,0.00106,-0.00506,0.79165,1,0,
06.29 11:26:29:149,2137,0.08063,-0.07607,9.81326,0.00000,0.00000,-2525397680142175760794213416960.00000,0.39064,-0.12327,-0.59850,-0.38407,104.68471,-0.45146,0.61094,0.00107,-0.00506,0.79166,1,0,
06.29 11:26:29:161,2138,0.09139,-0.08060,9.80833,0.00000,0.00000,-2525397680142175760794213416960.00000,0.38767,-0.12024,-0.60051,-0.38462,104.68406,-0.45129,0.61095,0.00107,-0.00506,0.79165,1,0,
06.29 11:26:29:170,2139,0.09143,-0.06759,9.81767,0.00000,0.00000,-2525397680142175760794213416960.00000,0.38816,-0.12278,-0.59852,-0.38506,104.68449,-0.45170,0.61095,0.00107,-0.00507,0.79166,1,0,
06.29 11:26:29:180,2140,0.09177,-0.07330,9.81312,0.00000,0.00000,-2525397680142175760794213416960.00000,0.38667,-0.12075,-0.60002,-0.38573,104.68465,-0.45194,0.61094,0.00107,-0.00507,0.79166,1,0,
06.29 11:26:29:191,2141,0.08373,-0.07208,9.82103,0.00000,0.00000,-2525397680142175760794213416960.00000,0.38816,-0.12077,-0.59901,-0.38639,104.68553,-0.45196,0.61094,0.00106,-0.00508,0.79166,1,0,
06.29 11:26:29:200,2142,0.07482,-0.07941,9.81894,0.00000,0.00000,-2525397680142175760794213416960.00000,0.38865,-0.12278,-0.59852,-0.38593,104.68652,-0.45226,0.61093,0.00107,-0.00508,0.79167,1,0,
06.29 11:26:29:210,2143,0.08269,-0.06096,9.82242,0.00000,0.00000,-2525397680142175760794213416960.00000,0.38817,-0.12023,-0.60100,-0.38618,104.68688,-0.45216,0.61093,0.00107,-0.00508,0.79167,1,0,
06.29 11:26:29:219,2144,0.08851,-0.05740,9.81937,0.00000,0.00000,-2525397680142175760794213416960.00000,0.38866,-0.12475,-0.59952,-0.38613,104.68846,-0.45207,0.61092,0.00106,-0.00508,0.79168,1,0,
06.29 11:26:29:230,2145,0.07666,-0.07546,9.80153,0.00000,0.00000,-2525397680142175760794213416960.00000,0.38667,-0.12176,-0.59952,-0.38637,104.68780,-0.45109,0.61092,0.00106,-0.00507,0.79167,1,0,
06.29 11:26:29:241,2146,0.08891,-0.05434,9.80799,0.00000,0.00000,-2525397680142175760794213416960.00000,0.38866,-0.12226,-0.59951,-0.38629,104.68714,-0.45142,0.61093,0.00106,-0.00508,0.79167,1,0,
