Time,Counter,ax,ay,az,gx,gy,gz,mx,my,mz,roll,yaw,pitch,q0,q1,q2,q3,debug0,debug1,debug2,debug3,Rest,Mag Disturbance,
06.30 14:32:40:165,54944,0.07343,0.19570,9.80332,0.00000,0.00000,0.00000,-0.06102,0.17626,-0.60951,1.14449,23.71836,-0.47177,0.97859,0.01062,-0.00198,0.20554,0.00000,0.00000,0.00000,0.00000,1,0,
06.30 14:32:40:166,54945,0.08169,0.20793,9.79438,0.00000,0.00000,0.00000,-0.06051,0.17831,-0.61199,1.14379,23.71841,-0.47124,0.97859,0.01061,-0.00197,0.20554,0.00000,0.00000,0.00000,0.00000,1,0,
06.30 14:32:40:166,54946,0.07321,0.19641,9.80191,0.00000,0.00000,0.00000,-0.06102,0.17628,-0.61051,1.14532,23.71803,-0.47061,0.97859,0.01063,-0.00197,0.20553,0.00000,0.00000,0.00000,0.00000,1,0,
06.30 14:32:40:172,54947,0.06705,0.21592,9.79640,0.00027,0.00000,-133880376.00000,-0.06202,0.17475,-0.60903,1.14526,23.71781,-0.47014,0.97859,0.01062,-0.00196,0.20553,0.00000,0.00000,0.00000,0.00000,1,0,
06.30 14:32:40:181,54948,0.07633,0.20915,9.79981,0.00027,0.00000,-133880376.00000,-0.06104,0.17719,-0.60602,1.14381,23.71859,-0.47080,0.97859,0.01061,-0.00197,0.20554,0.00000,0.00000,0.00000,0.00000,1,0,
06.30 14:32:40:190,54949,0.07846,0.21320,9.79809,0.00027,0.00000,-133880376.00000,-0.06351,0.17671,-0.60754,1.14300,23.71972,-0.47027,0.97859,0.01060,-0.00197,0.20555,0.00000,0.00000,0.00000,0.00000,1,0,
06.30 14:32:40:201,54950,0.09246,0.19282,9.80107,0.00027,0.00000,-133880376.00000,-0.06151,0.17578,-0.61051,1.14414,23.71979,-0.47034,0.97859,0.01061,-0.00196,0.20555,0.00000,0.00000,0.00000,0.00000,1,0,
06.30 14:32:40:210,54951,0.07511,0.21994,9.78825,0.00027,0.00000,-133880376.00000,-0.06252,0.17323,-0.60804,1.14449,23.71979,-0.47026,0.97859,0.01062,-0.00196,0.20555,0.00000,0.00000,0.00000,0.00000,1,0,
06.30 14:32:40:221,54952,0.06919,0.20604,9.79111,0.00027,0.00000,-133880376.00000,-0.06152,0.17524,-0.60852,1.14553,23.72057,-0.46944,0.97859,0.01062,-0.00195,0.20555,0.00000,0.00000,0.00000,0.00000,1,0,
06.30 14:32:40:232,54953,0.07728,0.19484,9.80172,0.00027,0.00000,-133880376.00000,-0.06103,0.17775,-0.60901,1.14597,23.71943,-0.46882,0.97859,0.01063,-0.00195,0.20554,0.00000,0.00000,0.00000,0.00000,1,0,
06.30 14:32:40:242,54954,0.09473,0.20760,9.79891,0.00027,0.00000,-133880376.00000,-0.06451,0.17372,-0.60756,1.14575,23.72031,-0.46866,0.97859,0.01063,-0.00195,0.20555,0.00000,0.00000,0.00000,0.00000,1,0,
06.30 14:32:40:252,54955,0.08576,0.20727,9.79111,0.00027,0.00000,-133880376.00000,-0.06301,0.17726,-0.60952,1.14502,23.72001,-0.46894,0.97859,0.01062,-0.00195,0.20555,0.00000,0.00000,0.00000,0.00000,1,0,
06.30 14:32:40:260,54956,0.07259,0.22162,9.79516,0.00027,0.00000,-133880376.00000,-0.06350,0.17325,-0.60904,1.14487,23.72028,-0.46890,0.97859,0.01062,-0.00195,0.20555,0.00000,0.00000,0.00000,0.00000,1,0,
06.30 14:32:40:271,54957,0.06661,0.20567,9.79528,0.00027,0.00000,-133880376.00000,-0.06151,0.17578,-0.61051,1.14537,23.71953,-0.46862,0.97859,0.01062,-0.00195,0.20555,0.00000,0.00000,0.00000,0.00000,1,0,
06.30 14:32:40:280,54958,0.08381,0.18903,9.80167,0.00027,0.00000,-133880376.00000,-0.06351,0.17774,-0.60903,1.14468,23.72025,-0.46896,0.97859,0.01062,-0.00195,0.20555,0.00000,0.00000,0.00000,0.00000,1,0,
06.30 14:32:40:291,54959,0.09367,0.21154,9.80499,0.00027,0.00000,-133880376.00000,-0.06299,0.17581,-0.61202,1.14357,23.71992,-0.46844,0.97859,0.01061,-0.00195,0.20555,0.00000,0.00000,0.00000,0.00000,1,0,
06.30 14:32:40:300,54960,0.06234,0.19107,9.79773,0.00027,0.00000,-133880376.00000,-0.06051,0.17381,-0.61151,1.14553,23.71996,-0.46799,0.97859,0.01062,-0.00194,0.20555,0.00000,0.00000,0.00000,0.00000,1,0,
06.30 14:32:40:311,54961,0.07133,0.20603,9.78486,0.00027,0.00000,-133880376.00000,-0.06003,0.17428,-0.61001,1.14529,23.72076,-0.46831,0.97859,0.01062,-0.00195,0.20556,0.00000,0.00000,0.00000,0.00000,1,0,
06.30 14:32:40:321,54962,0.06637,0.21505,9.78663,0.00027,0.00000,-133880376.00000,-0.06150,0.17683,-0.61300,1.14390,23.72055,-0.46773,0.97859,0.01061,-0.00194,0.20555,0.00000,0.00000,0.00000,0.00000,1,0,
06.30 14:32:40:331,54963,0.09164,0.19548,9.79371,0.00027,0.00000,-133880376.00000,-0.06549,0.17673,-0.60855,1.14469,23.72067,-0.46755,0.97859,0.01061,-0.00194,0.20555,0.00000,0.00000,0.00000,0.00000,1,0,
06.30 14:32:40:342,54964,0.08801,0.18522,9.79247,0.00027,0.00000,-133880376.00000,-0.06351,0.17475,-0.60904,1.14388,23.72162,-0.46798,0.97858,0.01061,-0.00194,0.20556,0.00000,0.00000,0.00000,0.00000,1,0,
06.30 14:32:40:350,54965,0.09366,0.18856,9.78920,0.00027,0.00000,-133880376.00000,-0.06102,0.17625,-0.60901,1.14368,23.72163,-0.46867,0.97858,0.01061,-0.00195,0.20556,0.00000,0.00000,0.00000,0.00000,1,0,
06.30 14:32:40:360,54966,0.08095,0.22514,9.78133,0.00027,0.00000,-133880376.00000,-0.06103,0.17473,-0.60802,1.14347,23.72161,-0.46845,0.97858,0.01061,-0.00195,0.20556,0.00000,0.00000,0.00000,0.00000,1,0,
06.30 14:32:40:370,54967,0.07686,0.18430,9.77802,0.00027,0.00000,-133880376.00000,-0.06202,0.17723,-0.60802,1.14418,23.72201,-0.46781,0.97858,0.01061,-0.00194,0.20557,0.00000,0.00000,0.00000,0.00000,1,0,
06.30 14:32:40:380,54968,0.07040,0.21504,9.80882,0.00027,0.00000,-133880376.00000,-0.06050,0.17587,-0.61449,1.14328,23.72194,-0.46768,0.97858,0.01060,-0.00194,0.20557,0.00000,0.00000,0.00000,0.00000,1,0,
06.30 14:32:40:392,54969,0.07591,0.21901,9.80098,0.00027,0.00000,-133880376.00000,-0.06251,0.17475,-0.60903,1.14359,23.72154,-0.46755,0.97858,0.01061,-0.00194,0.20556,0.00000,0.00000,0.00000,0.00000,1,0,
06.30 14:32:40:402,54970,0.06715,0.21311,9.76753,0.00027,0.00000,-133880376.00000,-0.06203,0.17772,-0.60752,1.14120,23.72284,-0.46785,0.97858,0.01059,-0.00195,0.20557,0.00000,0.00000,0.00000,0.00000,1,0,
06.30 14:32:40:411,54971,0.06966,0.19433,9.80346,0.00027,0.00000,-133880376.00000,-0.06351,0.17525,-0.60904,1.14118,23.72177,-0.46749,0.97858,0.01058,-0.00195,0.20556,0.00000,0.00000,0.00000,0.00000,1,0,
06.30 14:32:40:422,54972,0.08662,0.20423,9.79342,0.00027,0.00000,-133880376.00000,-0.06299,0.17484,-0.61351,1.14034,23.72210,-0.46756,0.97858,0.01058,-0.00195,0.20557,0.00000,0.00000,0.00000,0.00000,1,0,
06.30 14:32:40:431,54973,0.09335,0.20145,9.80361,0.00027,0.00000,-133880376.00000,-0.06102,0.17577,-0.61001,1.14081,23.72222,-0.46732,0.97858,0.01058,-0.00194,0.20557,0.00000,0.00000,0.00000,0.00000,1,0,
06.30 14:32:40:441,54974,0.06936,0.20474,9.79507,0.00027,0.00000,-133880376.00000,-0.06300,0.17629,-0.61102,1.14103,23.72171,-0.46638,0.97858,0.01058,-0.00194,0.20556,0.00000,0.00000,0.00000,0.00000,1,0,
06.30 14:32:40:450,54975,0.08298,0.20792,9.78686,0.00027,0.00000,-133880376.00000,-0.06000,0.17439,-0.61548,1.14122,23.72174,-0.46640,0.97858,0.01058,-0.00194,0.20556,0.00000,0.00000,0.00000,0.00000,1,0,
06.30 14:32:40:461,54976,0.07115,0.20541,9.79607,0.00027,0.00000,-133880376.00000,-0.06400,0.17474,-0.60855,1.14131,23.72150,-0.46558,0.97859,0.01058,-0.00193,0.20556,0.00000,0.00000,0.00000,0.00000,1,0,
06.30 14:32:40:472,54977,0.07794,0.20449,9.79502,0.00027,0.00000,-133880376.00000,-0.06501,0.17620,-0.60706,1.14159,23.72145,-0.46668,0.97859,0.01059,-0.00194,0.20556,0.00000,0.00000,0.00000,0.00000,1,0,
06.30 14:32:40:482,54978,0.06896,0.20671,9.79817,0.00027,0.00000,-133880376.00000,-0.06203,0.17470,-0.60654,1.14080,23.72177,-0.46684,0.97858,0.01058,-0.00194,0.20556,0.00000,0.00000,0.00000,0.00000,1,0,
06.30 14:32:40:492,54979,0.07090,0.20709,9.79464,0.00027,0.00000,-133880376.00000,-0.06104,0.17419,-0.60604,1.13981,23.72178,-0.46632,0.97858,0.01057,-0.00194,0.20556,0.00000,0.00000,0.00000,0.00000,1,0,
06.30 14:32:40:501,54980,0.05883,0.19982,9.78860,0.00027,0.00000,-133880376.00000,-0.06200,0.17630,-0.61151,1.13913,23.72257,-0.46526,0.97858,0.01056,-0.00193,0.20557,0.00000,0.00000,0.00000,0.00000,1,0,
06.30 14:32:40:511,54981,0.06046,0.20902,9.77995,0.00027,0.00000,-133880376.00000,-0.06099,0.17537,-0.61499,1.13878,23.72313,-0.46578,0.97858,0.01056,-0.00194,0.20558,0.00000,0.00000,0.00000,0.00000,1,0,
06.30 14:32:40:521,54982,0.07983,0.20204,9.80046,0.00027,0.00000,-133880376.00000,-0.06151,0.17128,-0.61003,1.13878,23.72324,-0.46504,0.97858,0.01056,-0.00193,0.20558,0.00000,0.00000,0.00000,0.00000,1,0,
06.30 14:32:40:531,54983,0.08483,0.21254,9.79277,0.00027,0.00000,-133880376.00000,-0.06300,0.17479,-0.61103,1.14187,23.72345,-0.46576,0.97858,0.01059,-0.00193,0.20558,0.00000,0.00000,0.00000,0.00000,1,0,
06.30 14:32:40:540,54984,0.07855,0.19204,9.78725,0.00027,0.00000,-133880376.00000,-0.06400,0.17575,-0.60954,1.14248,23.72417,-0.46527,0.97858,0.01059,-0.00192,0.20558,0.00000,0.00000,0.00000,0.00000,1,0,
06.30 14:32:40:551,54985,0.06887,0.22147,9.79004,0.00027,0.00000,-133880376.00000,-0.06102,0.17577,-0.61001,1.14160,23.72392,-0.46566,0.97858,0.01058,-0.00193,0.20558,0.00000,0.00000,0.00000,0.00000,1,0,
06.30 14:32:40:561,54986,0.08393,0.16803,9.80284,0.00027,0.00000,-133880376.00000,-0.06203,0.17321,-0.60704,1.14081,23.72376,-0.46516,0.97858,0.01058,-0.00193,0.20558,0.00000,0.00000,0.00000,0.00000,1,0,
06.30 14:32:40:571,54987,0.08431,0.19175,9.79550,0.00027,0.00000,-133880376.00000,-0.06102,0.17628,-0.61051,1.14151,23.72301,-0.46456,0.97858,0.01058,-0.00192,0.20557,0.00000,0.00000,0.00000,0.00000,1,0,
06.30 14:32:40:582,54988,0.07786,0.20535,9.79781,0.00027,0.00000,-133880376.00000,-0.06301,0.17576,-0.60953,1.14169,23.72325,-0.46375,0.97858,0.01058,-0.00191,0.20558,0.00000,0.00000,0.00000,0.00000,1,0,
06.30 14:32:40:591,54989,0.07375,0.19053,9.78489,0.00027,0.00000,-133880376.00000,-0.06253,0.17670,-0.60654,1.14135,23.72268,-0.46314,0.97858,0.01058,-0.00191,0.20557,0.00000,0.00000,0.00000,0.00000,1,0,
06.30 14:32:40:600,54990,0.08094,0.19382,9.81162,0.00027,0.00000,-133880376.00000,-0.06251,0.17527,-0.61003,1.14170,23.72250,-0.46363,0.97858,0.01058,-0.00191,0.20557,0.00000,0.00000,0.00000,0.00000,1,0,
06.30 14:32:40:611,54991,0.09427,0.18156,9.80103,0.00027,0.00000,-133880376.00000,-0.06151,0.17278,-0.61003,1.14155,23.72219,-0.46351,0.97858,0.01058,-0.00191,0.20557,0.00000,0.00000,0.00000,0.00000,1,0,
06.30 14:32:40:622,54992,0.08670,0.20894,9.80492,0.00027,0.00000,-133880376.00000,-0.06202,0.17573,-0.60803,1.14173,23.72112,-0.46259,0.97859,0.01058,-0.00190,0.20556,0.00000,0.00000,0.00000,0.00000,1,0,
06.30 14:32:40:632,54993,0.07647,0.21621,9.80060,0.00027,0.00000,-133880376.00000,-0.06203,0.17722,-0.60753,1.14195,23.72093,-0.46355,0.97859,0.01058,-0.00191,0.20556,0.00000,0.00000,0.00000,0.00000,1,0,
06.30 14:32:40:641,54994,0.08168,0.19659,9.81447,0.00027,0.00000,-133880376.00000,-0.06451,0.17621,-0.60755,1.14224,23.72049,-0.46332,0.97859,0.01059,-0.00191,0.20555,0.00000,0.00000,0.00000,0.00000,1,0,
06.30 14:32:40:651,54995,0.07057,0.19515,9.78553,0.00027,0.00000,-133880376.00000,-0.06050,0.17935,-0.61398,1.14091,23.72120,-0.46316,0.97859,0.01057,-0.00191,0.20556,0.00000,0.00000,0.00000,0.00000,1,0,
06.30 14:32:40:661,54996,0.07456,0.19928,9.79993,0.00027,0.00000,-133880376.00000,-0.06250,0.17378,-0.61053,1.13980,23.72144,-0.46379,0.97859,0.01057,-0.00192,0.20556,0.00000,0.00000,0.00000,0.00000,1,0,
06.30 14:32:40:670,54997,0.07256,0.19374,9.79583,0.00027,0.00000,-133880376.00000,-0.06351,0.17672,-0.60804,1.13965,23.72125,-0.46443,0.97859,0.01057,-0.00192,0.20556,0.00000,0.00000,0.00000,0.00000,1,0,
06.30 14:32:40:680,54998,0.06918,0.19550,9.78291,0.00027,0.00000,-133880376.00000,-0.06250,0.17529,-0.61102,1.14008,23.72098,-0.46456,0.97859,0.01057,-0.00192,0.20556,0.00000,0.00000,0.00000,0.00000,1,0,
06.30 14:32:40:690,54999,0.07516,0.19790,9.80229,0.00027,0.00000,-133880376.00000,-0.06201,0.17377,-0.61003,1.14052,23.72127,-0.46537,0.97859,0.01057,-0.00193,0.20556,0.00000,0.00000,0.00000,0.00000,1,0,
06.30 14:32:40:702,55000,0.08665,0.20326,9.79333,0.00027,0.00000,-133880376.00000,-0.06101,0.17680,-0.61150,1.14041,23.72109,-0.46475,0.97859,0.01057,-0.00192,0.20556,0.00000,0.00000,0.00000,0.00000,1,0,
06.30 14:32:40:712,55001,0.10229,0.19751,9.79080,0.00027,0.00000,-133880376.00000,-0.06150,0.17685,-0.61399,1.14057,23.72136,-0.46316,0.97859,0.01057,-0.00191,0.20556,0.00000,0.00000,0.00000,0.00000,1,0,
06.30 14:32:40:722,55002,0.06795,0.21288,9.80377,0.00027,0.00000,-133880376.00000,-0.06350,0.17677,-0.61053,1.14097,23.72116,-0.46301,0.97859,0.01057,-0.00191,0.20556,0.00000,0.00000,0.00000,0.00000,1,0,
06.30 14:32:40:732,55003,0.07902,0.21056,9.79268,0.00027,0.00000,-133880376.00000,-0.06102,0.17526,-0.60952,1.14017,23.72098,-0.46269,0.97859,0.01057,-0.00191,0.20556,0.00000,0.00000,0.00000,0.00000,1,0,
06.30 14:32:40:741,55004,0.09081,0.18731,9.79394,0.00027,0.00000,-133880376.00000,-0.06152,0.17426,-0.60952,1.14221,23.72048,-0.46332,0.97859,0.01059,-0.00191,0.20555,0.00000,0.00000,0.00000,0.00000,1,0,
06.30 14:32:40:751,55005,0.07321,0.20284,9.78594,0.00027,0.00000,-133880376.00000,-0.06052,0.17729,-0.61100,1.14116,23.72175,-0.46367,0.97858,0.01058,-0.00191,0.20556,0.00000,0.00000,0.00000,0.00000,1,0,
06.30 14:32:40:760,55006,0.09604,0.19844,9.80101,0.00027,0.00000,-133880376.00000,-0.06203,0.17471,-0.60704,1.13918,23.72191,-0.46326,0.97858,0.01056,-0.00191,0.20556,0.00000,0.00000,0.00000,0.00000,1,0,
06.30 14:32:40:770,55007,0.07458,0.22314,9.80601,0.00027,0.00000,-133880376.00000,-0.06053,0.17673,-0.60801,1.13931,23.72220,-0.46301,0.97858,0.01056,-0.00191,0.20557,0.00000,0.00000,0.00000,0.00000,1,0,
06.30 14:32:40:781,55008,0.05668,0.18501,9.79602,0.00027,0.00000,-133880376.00000,-0.05954,0.17576,-0.60900,1.14001,23.72265,-0.46307,0.97858,0.01057,-0.00191,0.20557,0.00000,0.00000,0.00000,0.00000,1,0,
06.30 14:32:40:791,55009,0.10201,0.20603,9.79936,0.00027,0.00000,-133880376.00000,-0.06401,0.17422,-0.60755,1.13967,23.72171,-0.46290,0.97859,0.01056,-0.00191,0.20556,0.00000,0.00000,0.00000,0.00000,1,0,
06.30 14:32:40:802,55010,0.08184,0.19758,9.78706,0.00027,0.00000,-133880376.00000,-0.06198,0.17688,-0.61549,1.13879,23.72080,-0.46385,0.97859,0.01056,-0.00192,0.20556,0.00000,0.00000,0.00000,0.00000,1,0,
06.30 14:32:40:811,55011,0.08870,0.20081,9.78653,0.00027,0.00000,-133880376.00000,-0.06350,0.17328,-0.61054,1.13975,23.72053,-0.46322,0.97859,0.01056,-0.00191,0.20555,0.00000,0.00000,0.00000,0.00000,1,0,
06.30 14:32:40:821,55012,0.07687,0.21729,9.79984,0.00027,0.00000,-133880376.00000,-0.06102,0.17676,-0.60951,1.14016,23.71945,-0.46321,0.97859,0.01057,-0.00191,0.20554,0.00000,0.00000,0.00000,0.00000,1,0,
06.30 14:32:40:830,55013,0.08838,0.22598,9.79602,0.00027,0.00000,-133880376.00000,-0.06152,0.17276,-0.60903,1.13960,23.72094,-0.46272,0.97859,0.01056,-0.00191,0.20556,0.00000,0.00000,0.00000,0.00000,1,0,
06.30 14:32:40:841,55014,0.06669,0.21181,9.82818,0.00027,0.00000,-133880376.00000,-0.06302,0.17472,-0.60754,1.14025,23.72078,-0.46351,0.97859,0.01057,-0.00191,0.20556,0.00000,0.00000,0.00000,0.00000,1,0,
06.30 14:32:40:850,55015,0.06699,0.18546,9.79338,0.00027,0.00000,-133880376.00000,-0.06202,0.17422,-0.60754,1.14004,23.72013,-0.46309,0.97859,0.01057,-0.00191,0.20555,0.00000,0.00000,0.00000,0.00000,1,0,
06.30 14:32:40:861,55016,0.09260,0.19656,9.79259,0.00027,0.00000,-133880376.00000,-0.06199,0.17535,-0.61400,1.13965,23.72050,-0.46302,0.97859,0.01056,-0.00191,0.20555,0.00000,0.00000,0.00000,0.00000,1,0,
06.30 14:32:40:871,55017,0.06619,0.20353,9.79721,0.00027,0.00000,-133880376.00000,-0.06202,0.17624,-0.60852,1.14053,23.72115,-0.46216,0.97859,0.01057,-0.00190,0.20556,0.00000,0.00000,0.00000,0.00000,1,0,
06.30 14:32:40:881,55018,0.11156,0.21250,9.80251,0.00027,0.00000,-133880376.00000,-0.06152,0.17675,-0.60902,1.14056,23.72129,-0.46166,0.97859,0.01057,-0.00190,0.20556,0.00000,0.00000,0.00000,0.00000,1,0,
06.30 14:32:40:891,55019,0.07002,0.19417,9.80892,0.00027,0.00000,-133880376.00000,-0.06203,0.17622,-0.60753,1.14133,23.72078,-0.46243,0.97859,0.01058,-0.00190,0.20556,0.00000,0.00000,0.00000,0.00000,1,0,
06.30 14:32:40:902,55020,0.07230,0.18586,9.80077,0.00027,0.00000,-133880376.00000,-0.06301,0.17676,-0.60953,1.13949,23.72167,-0.46110,0.97859,0.01056,-0.00189,0.20556,0.00000,0.00000,0.00000,0.00000,1,0,
06.30 14:32:40:911,55021,0.07928,0.21634,9.79187,0.00027,0.00000,-133880376.00000,-0.06499,0.17476,-0.61005,1.13827,23.72204,-0.46067,0.97858,0.01055,-0.00189,0.20557,0.00000,0.00000,0.00000,0.00000,1,0,
06.30 14:32:40:920,55022,0.09193,0.19864,9.78846,0.00027,0.00000,-133880376.00000,-0.06400,0.17725,-0.60953,1.13818,23.72231,-0.46117,0.97858,0.01055,-0.00190,0.20557,0.00000,0.00000,0.00000,0.00000,1,0,
06.30 14:32:40:931,55023,0.06569,0.20912,9.79669,0.00027,0.00000,-133880376.00000,-0.06249,0.17635,-0.61400,1.13741,23.72235,-0.46109,0.97858,0.01054,-0.00190,0.20557,0.00000,0.00000,0.00000,0.00000,1,0,
06.30 14:32:40:941,55024,0.08364,0.20913,9.79309,0.00027,0.00000,-133880376.00000,-0.06052,0.17530,-0.61100,1.13673,23.72251,-0.46140,0.97858,0.01054,-0.00190,0.20557,0.00000,0.00000,0.00000,0.00000,1,0,
06.30 14:32:40:952,55025,0.06737,0.20511,9.79116,0.00027,0.00000,-133880376.00000,-0.06301,0.17573,-0.60804,1.13711,23.72182,-0.46100,0.97859,0.01054,-0.00190,0.20556,0.00000,0.00000,0.00000,0.00000,1,0,
06.30 14:32:40:961,55026,0.08726,0.20849,9.80041,0.00027,0.00000,-133880376.00000,-0.06203,0.17521,-0.60704,1.13630,23.72316,-0.46045,0.97858,0.01053,-0.00189,0.20558,0.00000,0.00000,0.00000,0.00000,1,0,
06.30 14:32:40:972,55027,0.08411,0.21349,9.78706,0.00027,0.00000,-133880376.00000,-0.06351,0.17624,-0.60854,1.13539,23.72420,-0.46113,0.97858,0.01052,-0.00190,0.20558,0.00000,0.00000,0.00000,0.00000,1,0,
06.30 14:32:40:981,55028,0.08660,0.20776,9.80098,0.00027,0.00000,-133880376.00000,-0.06153,0.17572,-0.60753,1.13534,23.72415,-0.46177,0.97858,0.01052,-0.00191,0.20558,0.00000,0.00000,0.00000,0.00000,1,0,
06.30 14:32:40:990,55029,0.07873,0.21347,9.79223,0.00027,0.00000,-133880376.00000,-0.06252,0.17523,-0.60803,1.13487,23.72367,-0.46180,0.97858,0.01052,-0.00191,0.20558,0.00000,0.00000,0.00000,0.00000,1,0,
06.30 14:32:41:000,55030,0.09278,0.19909,9.79008,0.00027,0.00000,-133880376.00000,-0.06003,0.17575,-0.60851,1.13404,23.72319,-0.46157,0.97858,0.01051,-0.00191,0.20558,0.00000,0.00000,0.00000,0.00000,1,0,
06.30 14:32:41:011,55031,0.09969,0.20044,9.80925,0.00027,0.00000,-133880376.00000,-0.06351,0.17473,-0.60804,1.13460,23.72311,-0.46059,0.97858,0.01052,-0.00190,0.20557,0.00000,0.00000,0.00000,0.00000,1,0,
06.30 14:32:41:021,55032,0.08402,0.21700,9.79597,0.00027,0.00000,-133880376.00000,-0.06252,0.17522,-0.60754,1.13552,23.72289,-0.46006,0.97858,0.01052,-0.00189,0.20557,0.00000,0.00000,0.00000,0.00000,1,0,
06.30 14:32:41:031,55033,0.08769,0.20515,9.78572,0.00027,0.00000,-133880376.00000,-0.06104,0.17769,-0.60602,1.13648,23.72283,-0.45996,0.97858,0.01053,-0.00189,0.20557,0.00000,0.00000,0.00000,0.00000,1,0,
06.30 14:32:41:042,55034,0.07510,0.19808,9.79404,0.00027,0.00000,-133880376.00000,-0.06202,0.17423,-0.60803,1.13649,23.72296,-0.46057,0.97858,0.01053,-0.00189,0.20557,0.00000,0.00000,0.00000,0.00000,1,0,
06.30 14:32:41:051,55035,0.06510,0.19551,9.78770,0.00027,0.00000,-133880376.00000,-0.06299,0.17634,-0.61351,1.13716,23.72250,-0.46079,0.97858,0.01054,-0.00190,0.20557,0.00000,0.00000,0.00000,0.00000,1,0,
06.30 14:32:41:061,55036,0.08287,0.19218,9.80112,0.00027,0.00000,-133880376.00000,-0.06202,0.17223,-0.60804,1.13692,23.72181,-0.46078,0.97859,0.01054,-0.00190,0.20556,0.00000,0.00000,0.00000,0.00000,1,0,
06.30 14:32:41:070,55037,0.08896,0.18944,9.79936,0.00027,0.00000,-133880376.00000,-0.06103,0.17672,-0.60752,1.13649,23.72214,-0.46144,0.97858,0.01053,-0.00190,0.20557,0.00000,0.00000,0.00000,0.00000,1,0,
06.30 14:32:41:080,55038,0.07858,0.19903,9.80489,0.00027,0.00000,-133880376.00000,-0.06299,0.17532,-0.61252,1.13586,23.72259,-0.46068,0.97858,0.01053,-0.00190,0.20557,0.00000,0.00000,0.00000,0.00000,1,0,
06.30 14:32:41:091,55039,0.06663,0.19132,9.78796,0.00027,0.00000,-133880376.00000,-0.06202,0.17424,-0.60853,1.13560,23.72285,-0.46092,0.97858,0.01052,-0.00190,0.20557,0.00000,0.00000,0.00000,0.00000,1,0,
06.30 14:32:41:101,55040,0.09754,0.19993,9.80332,0.00027,0.00000,-133880376.00000,-0.06252,0.17621,-0.60704,1.13634,23.72296,-0.46151,0.97858,0.01053,-0.00190,0.20557,0.00000,0.00000,0.00000,0.00000,1,0,
06.30 14:32:41:111,55041,0.07138,0.22052,9.79476,0.00027,0.00000,-133880376.00000,-0.06252,0.17372,-0.60754,1.13574,23.72311,-0.46127,0.97858,0.01053,-0.00190,0.20557,0.00000,0.00000,0.00000,0.00000,1,0,
06.30 14:32:41:121,55042,0.07852,0.20618,9.81113,0.00027,0.00000,-133880376.00000,-0.06053,0.17527,-0.60951,1.13515,23.72289,-0.46176,0.97858,0.01052,-0.00191,0.20557,0.00000,0.00000,0.00000,0.00000,1,0,
06.30 14:32:41:131,55043,0.08538,0.21345,9.79978,0.00027,0.00000,-133880376.00000,-0.06202,0.17473,-0.60803,1.13617,23.72329,-0.46119,0.97858,0.01053,-0.00190,0.20558,0.00000,0.00000,0.00000,0.00000,1,0,
06.30 14:32:41:142,55044,0.08415,0.18683,9.79762,0.00027,0.00000,-133880376.00000,-0.06201,0.17528,-0.61052,1.13660,23.72245,-0.46121,0.97858,0.01053,-0.00190,0.20557,0.00000,0.00000,0.00000,0.00000,1,0,
06.30 14:32:41:150,55045,0.09275,0.20449,9.79685,0.00027,0.00000,-133880376.00000,-0.06202,0.17322,-0.60754,1.13648,23.72258,-0.46022,0.97858,0.01053,-0.00189,0.20557,0.00000,0.00000,0.00000,0.00000,1,0,
06.30 14:32:41:160,55046,0.07507,0.20488,9.79374,0.00027,0.00000,-133880376.00000,-0.06152,0.17324,-0.60853,1.13541,23.72371,-0.46050,0.97858,0.01052,-0.00190,0.20558,0.00000,0.00000,0.00000,0.00000,1,0,
06.30 14:32:41:171,55047,0.06932,0.19424,9.79762,0.00027,0.00000,-133880376.00000,-0.06351,0.17624,-0.60854,1.13457,23.72372,-0.46028,0.97858,0.01051,-0.00190,0.20558,0.00000,0.00000,0.00000,0.00000,1,0,
06.30 14:32:41:181,55048,0.07379,0.19748,9.78601,0.00027,0.00000,-133880376.00000,-0.06053,0.17674,-0.60851,1.13299,23.72307,-0.45925,0.97858,0.01050,-0.00189,0.20557,0.00000,0.00000,0.00000,0.00000,1,0,
06.30 14:32:41:191,55049,0.08647,0.21169,9.79972,0.00027,0.00000,-133880376.00000,-0.06301,0.17726,-0.60952,1.13315,23.72358,-0.45882,0.97858,0.01050,-0.00189,0.20558,0.00000,0.00000,0.00000,0.00000,1,0,
06.30 14:32:41:201,55050,0.07669,0.20547,9.80322,0.00027,0.00000,-133880376.00000,-0.06451,0.17670,-0.60705,1.13259,23.72362,-0.45833,0.97858,0.01049,-0.00188,0.20558,0.00000,0.00000,0.00000,0.00000,1,0,
06.30 14:32:41:211,55051,0.07926,0.20293,9.79252,0.00027,0.00000,-133880376.00000,-0.06303,0.17469,-0.60605,1.13117,23.72494,-0.45809,0.97858,0.01048,-0.00188,0.20559,0.00000,0.00000,0.00000,0.00000,1,0,
06.30 14:32:41:221,55052,0.08678,0.19522,9.80258,0.00027,0.00000,-133880376.00000,-0.06152,0.17625,-0.60902,1.13080,23.72400,-0.45864,0.97858,0.01048,-0.00189,0.20558,0.00000,0.00000,0.00000,0.00000,1,0,
06.30 14:32:41:230,55053,0.08866,0.18728,9.80191,0.00027,0.00000,-133880376.00000,-0.06203,0.17419,-0.60604,1.13103,23.72400,-0.45838,0.97858,0.01048,-0.00189,0.20558,0.00000,0.00000,0.00000,0.00000,1,0,
06.30 14:32:41:240,55054,0.07445,0.19421,9.78665,0.00027,0.00000,-133880376.00000,-0.06153,0.17472,-0.60753,1.13149,23.72395,-0.45676,0.97858,0.01048,-0.00187,0.20558,0.00000,0.00000,0.00000,0.00000,1,0,
06.30 14:32:41:251,55055,0.07300,0.18528,9.79621,0.00027,0.00000,-133880376.00000,-0.06102,0.17475,-0.60902,1.13263,23.72280,-0.45658,0.97858,0.01049,-0.00187,0.20557,0.00000,0.00000,0.00000,0.00000,1,0,
06.30 14:32:41:261,55056,0.07866,0.20346,9.79580,0.00027,0.00000,-133880376.00000,-0.06154,0.17569,-0.60603,1.13305,23.72296,-0.45723,0.97858,0.01050,-0.00187,0.20557,0.00000,0.00000,0.00000,0.00000,1,0,
06.30 14:32:41:271,55057,0.08162,0.20256,9.78885,0.00027,0.00000,-133880376.00000,-0.06199,0.17834,-0.61349,1.13219,23.72298,-0.45701,0.97858,0.01049,-0.00187,0.20557,0.00000,0.00000,0.00000,0.00000,1,0,
06.30 14:32:41:281,55058,0.09805,0.19343,9.78541,0.00027,0.00000,-133880376.00000,-0.06102,0.17475,-0.60902,1.13140,23.72417,-0.45721,0.97858,0.01048,-0.00188,0.20558,0.00000,0.00000,0.00000,0.00000,1,0,
06.30 14:32:41:291,55059,0.07834,0.19122,9.77983,0.00027,0.00000,-133880376.00000,-0.06303,0.17568,-0.60555,1.13163,23.72355,-0.45599,0.97858,0.01048,-0.00186,0.20558,0.00000,0.00000,0.00000,0.00000,1,0,
06.30 14:32:41:301,55060,0.08508,0.18536,9.79834,0.00027,0.00000,-133880376.00000,-0.06400,0.17523,-0.60854,1.13118,23.72362,-0.45666,0.97858,0.01048,-0.00187,0.20558,0.00000,0.00000,0.00000,0.00000,1,0,
06.30 14:32:41:310,55061,0.07721,0.21048,9.80391,0.00027,0.00000,-133880376.00000,-0.06202,0.17424,-0.60853,1.13122,23.72326,-0.45655,0.97858,0.01048,-0.00187,0.20558,0.00000,0.00000,0.00000,0.00000,1,0,
06.30 14:32:41:320,55062,0.07402,0.19636,9.80000,0.00027,0.00000,-133880376.00000,-0.06153,0.17771,-0.60702,1.13262,23.72264,-0.45688,0.97858,0.01049,-0.00187,0.20557,0.00000,0.00000,0.00000,0.00000,1,0,
06.30 14:32:41:331,55063,0.06441,0.20695,9.79626,0.00027,0.00000,-133880376.00000,-0.06054,0.17472,-0.60702,1.13260,23.72228,-0.45652,0.97859,0.01049,-0.00187,0.20557,0.00000,0.00000,0.00000,0.00000,1,0,
06.30 14:32:41:341,55064,0.07720,0.20599,9.78355,0.00027,0.00000,-133880376.00000,-0.06253,0.17618,-0.60554,1.13185,23.72364,-0.45622,0.97858,0.01048,-0.00187,0.20558,0.00000,0.00000,0.00000,0.00000,1,0,
06.30 14:32:41:355,55065,0.06189,0.18174,9.79252,0.00027,0.00000,-133880376.00000,-0.06152,0.17424,-0.60853,1.14547,23.72798,-0.46895,0.97857,0.01062,-0.00195,0.20562,0.00000,0.00000,0.00000,0.00000,1,0,
06.30 14:32:41:361,55066,0.07723,0.21021,9.77420,0.00027,0.00000,-133880376.00000,-0.06303,0.17619,-0.60604,1.14698,23.72859,-0.46891,0.97857,0.01064,-0.00195,0.20562,0.00000,0.00000,0.00000,0.00000,1,0,
06.30 14:32:41:371,55067,0.05121,0.20015,9.80835,0.00027,0.00000,-133880376.00000,-0.06303,0.17518,-0.60555,1.14602,23.72857,-0.46975,0.97857,0.01063,-0.00196,0.20562,0.00000,0.00000,0.00000,0.00000,1,0,
06.30 14:32:41:381,55068,0.08193,0.19887,9.79535,0.00027,0.00000,-133880376.00000,-0.06202,0.17776,-0.60951,1.14580,23.72789,-0.47115,0.97857,0.01063,-0.00197,0.20562,0.00000,0.00000,0.00000,0.00000,1,0,
06.30 14:32:41:390,55069,0.07408,0.19791,9.78997,0.00027,0.00000,-133880376.00000,-0.06153,0.17273,-0.60804,1.14516,23.72892,-0.47134,0.97857,0.01063,-0.00197,0.20563,0.00000,0.00000,0.00000,0.00000,1,0,
06.30 14:32:41:401,55070,0.07302,0.20067,9.78682,0.00027,0.00000,-133880376.00000,-0.06103,0.17623,-0.60802,1.14435,23.72954,-0.47036,0.97857,0.01062,-0.00196,0.20563,0.00000,0.00000,0.00000,0.00000,1,0,
06.30 14:32:41:411,55071,0.08910,0.20876,9.78532,0.00027,0.00000,-133880376.00000,-0.06402,0.17568,-0.60605,1.14421,23.73013,-0.46954,0.97857,0.01061,-0.00196,0.20564,0.00000,0.00000,0.00000,0.00000,1,0,
06.30 14:32:41:421,55072,0.07103,0.20041,9.79375,0.00027,0.00000,-133880376.00000,-0.06099,0.17587,-0.61499,1.14334,23.73013,-0.46927,0.97857,0.01061,-0.00196,0.20564,0.00000,0.00000,0.00000,0.00000,1,0,
06.30 14:32:41:431,55073,0.05592,0.19629,9.81228,0.00027,0.00000,-133880376.00000,-0.06401,0.17472,-0.60755,1.14332,23.73135,-0.46840,0.97857,0.01060,-0.00195,0.20565,0.00000,0.00000,0.00000,0.00000,1,0,
06.30 14:32:41:441,55074,0.06850,0.19051,9.79151,0.00027,0.00000,-133880376.00000,-0.06549,0.17525,-0.60955,1.14354,23.73070,-0.46856,0.97857,0.01061,-0.00195,0.20564,0.00000,0.00000,0.00000,0.00000,1,0,
06.30 14:32:41:450,55075,0.07474,0.19758,9.79485,0.00027,0.00000,-133880376.00000,-0.06202,0.17624,-0.60852,1.14415,23.73147,-0.46839,0.97857,0.01061,-0.00195,0.20565,0.00000,0.00000,0.00000,0.00000,1,0,
06.30 14:32:41:461,55076,0.07692,0.20003,9.78527,0.00027,0.00000,-133880376.00000,-0.06053,0.17823,-0.60801,1.14451,23.73028,-0.46837,0.97857,0.01061,-0.00195,0.20564,0.00000,0.00000,0.00000,0.00000,1,0,
06.30 14:32:41:470,55077,0.06797,0.20414,9.79941,0.00027,0.00000,-133880376.00000,-0.06350,0.17378,-0.61054,1.14288,23.72953,-0.46786,0.97857,0.01060,-0.00194,0.20563,0.00000,0.00000,0.00000,0.00000,1,0,
06.30 14:32:41:481,55078,0.08496,0.19504,9.79073,0.00027,0.00000,-133880376.00000,-0.06203,0.17569,-0.60604,1.14133,23.73019,-0.46752,0.97857,0.01059,-0.00194,0.20564,0.00000,0.00000,0.00000,0.00000,1,0,
06.30 14:32:41:491,55079,0.05367,0.21407,9.79256,0.00027,0.00000,-133880376.00000,-0.06251,0.17626,-0.60952,1.14021,23.73024,-0.46698,0.97857,0.01058,-0.00194,0.20564,0.00000,0.00000,0.00000,0.00000,1,0,
06.30 14:32:41:501,55080,0.06742,0.21185,9.80229,0.00027,0.00000,-133880376.00000,-0.06103,0.17623,-0.60802,1.14092,23.72979,-0.46714,0.97857,0.01058,-0.00194,0.20563,0.00000,0.00000,0.00000,0.00000,1,0,
06.30 14:32:41:511,55081,0.07987,0.20070,9.80456,0.00027,0.00000,-133880376.00000,-0.06204,0.17516,-0.60455,1.13997,23.73030,-0.46639,0.97857,0.01057,-0.00194,0.20564,0.00000,0.00000,0.00000,0.00000,1,0,
06.30 14:32:41:521,55082,0.07148,0.18093,9.79354,0.00027,0.00000,-133880376.00000,-0.06400,0.17624,-0.60904,1.13914,23.73068,-0.46652,0.97857,0.01057,-0.00194,0.20564,0.00000,0.00000,0.00000,0.00000,1,0,
06.30 14:32:41:531,55083,0.05973,0.20839,9.80427,0.00027,0.00000,-133880376.00000,-0.06250,0.17681,-0.61201,1.13909,23.73132,-0.46548,0.97857,0.01056,-0.00193,0.20565,0.00000,0.00000,0.00000,0.00000,1,0,
06.30 14:32:41:541,55084,0.08827,0.19665,9.79631,0.00027,0.00000,-133880376.00000,-0.06102,0.17577,-0.61001,1.13952,23.73097,-0.46563,0.97857,0.01057,-0.00193,0.20564,0.00000,0.00000,0.00000,0.00000,1,0,
06.30 14:32:41:550,55085,0.06826,0.19628,9.79228,0.00027,0.00000,-133880376.00000,-0.06301,0.17674,-0.60853,1.13910,23.73178,-0.46487,0.97857,0.01056,-0.00193,0.20565,0.00000,0.00000,0.00000,0.00000,1,0,
06.30 14:32:41:561,55086,0.07065,0.20444,9.78441,0.00027,0.00000,-133880376.00000,-0.06299,0.17433,-0.61302,1.13987,23.73137,-0.46460,0.97857,0.01057,-0.00192,0.20565,0.00000,0.00000,0.00000,0.00000,1,0,
06.30 14:32:41:571,55087,0.06753,0.22136,9.79459,0.00027,0.00000,-133880376.00000,-0.06302,0.17570,-0.60654,1.13902,23.73114,-0.46426,0.97857,0.01056,-0.00192,0.20564,0.00000,0.00000,0.00000,0.00000,1,0,
06.30 14:32:41:581,55088,0.07542,0.20736,9.80108,0.00027,0.00000,-133880376.00000,-0.06448,0.17330,-0.61154,1.13723,23.73098,-0.46538,0.97857,0.01055,-0.00193,0.20564,0.00000,0.00000,0.00000,0.00000,1,0,
06.30 14:32:41:590,55089,0.07052,0.18920,9.79681,0.00027,0.00000,-133880376.00000,-0.06401,0.17572,-0.60804,1.13749,23.73094,-0.46538,0.97857,0.01055,-0.00193,0.20564,0.00000,0.00000,0.00000,0.00000,1,0,
06.30 14:32:41:601,55090,0.06951,0.19328,9.79967,0.00027,0.00000,-133880376.00000,-0.06153,0.17572,-0.60753,1.13829,23.73156,-0.46659,0.97857,0.01056,-0.00194,0.20565,0.00000,0.00000,0.00000,0.00000,1,0,
06.30 14:32:41:611,55091,0.07884,0.20194,9.80253,0.00027,0.00000,-133880376.00000,-0.06150,0.17483,-0.61300,1.13774,23.73191,-0.46535,0.97857,0.01055,-0.00193,0.20565,0.00000,0.00000,0.00000,0.00000,1,0,
06.30 14:32:41:621,55092,0.07982,0.21235,9.79206,0.00027,0.00000,-133880376.00000,-0.06201,0.17626,-0.60952,1.13843,23.73177,-0.46498,0.97857,0.01056,-0.00193,0.20565,0.00000,0.00000,0.00000,0.00000,1,0,
06.30 14:32:41:630,55093,0.04892,0.19833,9.79106,0.00027,0.00000,-133880376.00000,-0.06203,0.17720,-0.60653,1.13796,23.73260,-0.46462,0.97857,0.01055,-0.00193,0.20566,0.00000,0.00000,0.00000,0.00000,1,0,
06.30 14:32:41:641,55094,0.08195,0.20092,9.79667,0.00027,0.00000,-133880376.00000,-0.06302,0.17372,-0.60755,1.13616,23.73299,-0.46439,0.97856,0.01054,-0.00193,0.20566,0.00000,0.00000,0.00000,0.00000,1,0,
06.30 14:32:41:651,55095,0.08024,0.19418,9.79824,0.00027,0.00000,-133880376.00000,-0.06303,0.17618,-0.60555,1.13611,23.73238,-0.46404,0.97857,0.01053,-0.00192,0.20565,0.00000,0.00000,0.00000,0.00000,1,0,
06.30 14:32:41:661,55096,0.07579,0.20837,9.79252,0.00027,0.00000,-133880376.00000,-0.06302,0.17321,-0.60705,1.13534,23.73299,-0.46386,0.97857,0.01053,-0.00192,0.20566,0.00000,0.00000,0.00000,0.00000,1,0,
06.30 14:32:41:671,55097,0.06144,0.20491,9.79425,0.00027,0.00000,-133880376.00000,-0.06153,0.17522,-0.60753,1.13635,23.73256,-0.46487,0.97857,0.01054,-0.00193,0.20566,0.00000,0.00000,0.00000,0.00000,1,0,
06.30 14:32:41:681,55098,0.08877,0.19869,9.78665,0.00027,0.00000,-133880376.00000,-0.06204,0.17568,-0.60554,1.13649,23.73298,-0.46435,0.97857,0.01054,-0.00193,0.20566,0.00000,0.00000,0.00000,0.00000,1,0,
06.30 14:32:41:691,55099,0.06558,0.20699,9.79056,0.00027,0.00000,-133880376.00000,-0.06348,0.17336,-0.61452,1.13624,23.73391,-0.46459,0.97856,0.01054,-0.00193,0.20567,0.00000,0.00000,0.00000,0.00000,1,0,
06.30 14:32:41:700,55100,0.06497,0.19497,9.80193,0.00027,0.00000,-133880376.00000,-0.06103,0.17474,-0.60852,1.13782,23.73258,-0.46467,0.97857,0.01055,-0.00193,0.20566,0.00000,0.00000,0.00000,0.00000,1,0,
06.30 14:32:41:711,55101,0.09928,0.20636,9.79175,0.00027,0.00000,-133880376.00000,-0.06352,0.17421,-0.60705,1.13757,23.73341,-0.46463,0.97856,0.01055,-0.00193,0.20566,0.00000,0.00000,0.00000,0.00000,1,0,
06.30 14:32:41:721,55102,0.06209,0.19385,9.79645,0.00027,0.00000,-133880376.00000,-0.06252,0.17371,-0.60704,1.13740,23.73435,-0.46417,0.97856,0.01055,-0.00192,0.20567,0.00000,0.00000,0.00000,0.00000,1,0,
06.30 14:32:41:731,55103,0.07606,0.19943,9.79786,0.00027,0.00000,-133880376.00000,-0.06052,0.17830,-0.61149,1.13679,23.73536,-0.46504,0.97856,0.01054,-0.00193,0.20568,0.00000,0.00000,0.00000,0.00000,1,0,
06.30 14:32:41:741,55104,0.06757,0.19572,9.78942,0.00027,0.00000,-133880376.00000,-0.06202,0.17423,-0.60803,1.13434,23.73555,-0.46473,0.97856,0.01052,-0.00193,0.20568,0.00000,0.00000,0.00000,0.00000,1,0,
06.30 14:32:41:751,55105,0.06627,0.19655,9.79228,0.00027,0.00000,-133880376.00000,-0.06153,0.17421,-0.60703,1.13343,23.73600,-0.46504,0.97856,0.01051,-0.00194,0.20569,0.00000,0.00000,0.00000,0.00000,1,0,
06.30 14:32:41:761,55106,0.07995,0.18763,9.79192,0.00027,0.00000,-133880376.00000,-0.06202,0.17473,-0.60803,1.13672,23.73691,-0.46559,0.97856,0.01054,-0.00194,0.20569,0.00000,0.00000,0.00000,0.00000,1,0,
06.30 14:32:41:771,55107,0.08691,0.20649,9.79485,0.00027,0.00000,-133880376.00000,-0.06252,0.17472,-0.60754,1.13698,23.73608,-0.46570,0.97856,0.01055,-0.00194,0.20569,0.00000,0.00000,0.00000,0.00000,1,0,
06.30 14:32:41:781,55108,0.08233,0.21102,9.79504,0.00027,0.00000,-133880376.00000,-0.06303,0.17468,-0.60555,1.13638,23.73613,-0.46587,0.97856,0.01054,-0.00194,0.20569,0.00000,0.00000,0.00000,0.00000,1,0,
06.30 14:32:41:791,55109,0.08209,0.23331,9.78124,0.00027,0.00000,-133880376.00000,-0.06301,0.17476,-0.60953,1.13620,23.73623,-0.46610,0.97856,0.01054,-0.00194,0.20569,0.00000,0.00000,0.00000,0.00000,1,0,
06.30 14:32:41:801,55110,0.09897,0.20319,9.80200,0.00027,0.00000,-133880376.00000,-0.06153,0.17823,-0.60802,1.13779,23.73556,-0.46518,0.97856,0.01055,-0.00193,0.20568,0.00000,0.00000,0.00000,0.00000,1,0,
06.30 14:32:41:811,55111,0.07298,0.18711,9.81664,0.00027,0.00000,-133880376.00000,-0.06054,0.17720,-0.60652,1.13779,23.73420,-0.46434,0.97856,0.01055,-0.00192,0.20567,0.00000,0.00000,0.00000,0.00000,1,0,
06.30 14:32:41:821,55112,0.08096,0.18636,9.80392,0.00027,0.00000,-133880376.00000,-0.06501,0.17568,-0.60606,1.13599,23.73365,-0.46435,0.97856,0.01053,-0.00193,0.20567,0.00000,0.00000,0.00000,0.00000,1,0,
06.30 14:32:41:831,55113,0.09248,0.21534,9.78951,0.00027,0.00000,-133880376.00000,-0.06004,0.17772,-0.60751,1.13474,23.73442,-0.46417,0.97856,0.01052,-0.00193,0.20567,0.00000,0.00000,0.00000,0.00000,1,0,
06.30 14:32:41:841,55114,0.07264,0.18556,9.79056,0.00027,0.00000,-133880376.00000,-0.06152,0.17476,-0.60952,1.13522,23.73467,-0.46312,0.97856,0.01053,-0.00192,0.20567,0.00000,0.00000,0.00000,0.00000,1,0,
06.30 14:32:41:851,55115,0.07518,0.20586,9.79507,0.00027,0.00000,-133880376.00000,-0.06202,0.17575,-0.60902,1.13584,23.73496,-0.46363,0.97856,0.01053,-0.00192,0.20568,0.00000,0.00000,0.00000,0.00000,1,0,
06.30 14:32:41:861,55116,0.06623,0.21879,9.81371,0.00027,0.00000,-133880376.00000,-0.06054,0.17622,-0.60752,1.13522,23.73586,-0.46350,0.97856,0.01053,-0.00192,0.20568,0.00000,0.00000,0.00000,0.00000,1,0,
06.30 14:32:41:871,55117,0.07634,0.17903,9.79397,0.00027,0.00000,-133880376.00000,-0.06401,0.17770,-0.60704,1.13468,23.73605,-0.46343,0.97856,0.01052,-0.00192,0.20569,0.00000,0.00000,0.00000,0.00000,1,0,
06.30 14:32:41:881,55118,0.06445,0.20528,9.79786,0.00027,0.00000,-133880376.00000,-0.06055,0.17718,-0.60552,1.13470,23.73661,-0.46394,0.97856,0.01052,-0.00193,0.20569,0.00000,0.00000,0.00000,0.00000,1,0,
06.30 14:32:41:891,55119,0.08210,0.20105,9.79214,0.00027,0.00000,-133880376.00000,-0.06202,0.17422,-0.60754,1.13137,23.73771,-0.46360,0.97856,0.01049,-0.00193,0.20570,0.00000,0.00000,0.00000,0.00000,1,0,
06.30 14:32:41:900,55120,0.07667,0.19284,9.81554,0.00027,0.00000,-133880376.00000,-0.06303,0.17666,-0.60455,1.13270,23.73700,-0.46315,0.97856,0.01050,-0.00192,0.20569,0.00000,0.00000,0.00000,0.00000,1,0,
06.30 14:32:41:911,55121,0.08693,0.20547,9.78188,0.00027,0.00000,-133880376.00000,-0.06401,0.17520,-0.60705,1.13381,23.73647,-0.46352,0.97856,0.01051,-0.00192,0.20569,0.00000,0.00000,0.00000,0.00000,1,0,
06.30 14:32:41:921,55122,0.08558,0.17760,9.81464,0.00027,0.00000,-133880376.00000,-0.06348,0.17486,-0.61451,1.13481,23.73582,-0.46348,0.97856,0.01052,-0.00192,0.20568,0.00000,0.00000,0.00000,0.00000,1,0,
06.30 14:32:41:931,55123,0.07336,0.20729,9.79271,0.00027,0.00000,-133880376.00000,-0.06252,0.17521,-0.60704,1.13553,23.73533,-0.46349,0.97856,0.01053,-0.00192,0.20568,0.00000,0.00000,0.00000,0.00000,1,0,
06.30 14:32:41:941,55124,0.08671,0.20546,9.80012,0.00027,0.00000,-133880376.00000,-0.06450,0.17474,-0.60905,1.13508,23.73558,-0.46352,0.97856,0.01053,-0.00192,0.20568,0.00000,0.00000,0.00000,0.00000,1,0,
06.30 14:32:41:952,55125,0.07493,0.18256,9.80351,0.00027,0.00000,-133880376.00000,-0.06253,0.17618,-0.60554,1.13438,23.73616,-0.46262,0.97856,0.01052,-0.00191,0.20569,0.00000,0.00000,0.00000,0.00000,1,0,
06.30 14:32:41:961,55126,0.06935,0.20327,9.79729,0.00027,0.00000,-133880376.00000,-0.06301,0.17424,-0.60854,1.13394,23.73537,-0.46352,0.97856,0.01052,-0.00192,0.20568,0.00000,0.00000,0.00000,0.00000,1,0,
06.30 14:32:41:971,55127,0.07776,0.20533,9.79273,0.00027,0.00000,-133880376.00000,-0.06401,0.17520,-0.60705,1.13320,23.73574,-0.46339,0.97856,0.01051,-0.00192,0.20568,0.00000,0.00000,0.00000,0.00000,1,0,
06.30 14:32:41:981,55128,0.10156,0.21091,9.76443,0.00027,0.00000,-133880376.00000,-0.06101,0.17530,-0.61151,1.13406,23.73521,-0.46284,0.97856,0.01052,-0.00192,0.20568,0.00000,0.00000,0.00000,0.00000,1,0,
06.30 14:32:41:991,55129,0.08440,0.19461,9.78467,0.00027,0.00000,-133880376.00000,-0.06251,0.17778,-0.61051,1.13368,23.73561,-0.46285,0.97856,0.01051,-0.00192,0.20568,0.00000,0.00000,0.00000,0.00000,1,0,
06.30 14:32:42:000,55130,0.07201,0.20356,9.77721,0.00027,0.00000,-133880376.00000,-0.06302,0.17571,-0.60704,1.13355,23.73573,-0.46435,0.97856,0.01051,-0.00193,0.20568,0.00000,0.00000,0.00000,0.00000,1,0,
06.30 14:32:42:010,55131,0.07926,0.22047,9.79850,0.00027,0.00000,-133880376.00000,-0.06253,0.17420,-0.60654,1.13353,23.73514,-0.46441,0.97856,0.01051,-0.00193,0.20568,0.00000,0.00000,0.00000,0.00000,1,0,
06.30 14:32:42:022,55132,0.08350,0.20173,9.79006,0.00027,0.00000,-133880376.00000,-0.06251,0.17576,-0.60953,1.13494,23.73483,-0.46460,0.97856,0.01053,-0.00193,0.20568,0.00000,0.00000,0.00000,0.00000,1,0,
06.30 14:32:42:032,55133,0.09014,0.20895,9.80319,0.00027,0.00000,-133880376.00000,-0.06152,0.17774,-0.60852,1.13647,23.73448,-0.46445,0.97856,0.01054,-0.00193,0.20567,0.00000,0.00000,0.00000,0.00000,1,0,
06.30 14:32:42:041,55134,0.07355,0.21363,9.78965,0.00027,0.00000,-133880376.00000,-0.06352,0.17669,-0.60654,1.13792,23.73413,-0.46364,0.97856,0.01055,-0.00192,0.20567,0.00000,0.00000,0.00000,0.00000,1,0,
06.30 14:32:42:052,55135,0.05981,0.21073,9.78973,0.00027,0.00000,-133880376.00000,-0.06054,0.17569,-0.60603,1.13614,23.73454,-0.46281,0.97856,0.01053,-0.00191,0.20567,0.00000,0.00000,0.00000,0.00000,1,0,
06.30 14:32:42:064,55136,0.09367,0.21208,9.79681,0.00027,0.00000,-133880376.00000,-0.06202,0.17522,-0.60753,1.13434,23.73515,-0.46143,0.97856,0.01052,-0.00190,0.20568,0.00000,0.00000,0.00000,0.00000,1,0,
06.30 14:32:42:071,55137,0.09130,0.21418,9.78050,0.00027,0.00000,-133880376.00000,-0.06400,0.17424,-0.60855,1.13572,23.73428,-0.46269,0.97856,0.01053,-0.00191,0.20567,0.00000,0.00000,0.00000,0.00000,1,0,
06.30 14:32:42:082,55138,0.08033,0.19461,9.79564,0.00027,0.00000,-133880376.00000,-0.06252,0.17473,-0.60804,1.13716,23.73489,-0.46248,0.97856,0.01054,-0.00191,0.20568,0.00000,0.00000,0.00000,0.00000,1,0,
06.30 14:32:42:092,55139,0.09133,0.20443,9.78706,0.00027,0.00000,-133880376.00000,-0.06003,0.17326,-0.60902,1.13561,23.73531,-0.46199,0.97856,0.01053,-0.00191,0.20568,0.00000,0.00000,0.00000,0.00000,1,0,
06.30 14:32:42:101,55140,0.06080,0.19683,9.80384,0.00027,0.00000,-133880376.00000,-0.06154,0.17567,-0.60504,1.13591,23.73569,-0.46232,0.97856,0.01053,-0.00191,0.20568,0.00000,0.00000,0.00000,0.00000,1,0,
06.30 14:32:42:111,55141,0.06715,0.19518,9.80241,0.00027,0.00000,-133880376.00000,-0.06351,0.17622,-0.60754,1.13784,23.73520,-0.46216,0.97856,0.01055,-0.00190,0.20568,0.00000,0.00000,0.00000,0.00000,1,0,
06.30 14:32:42:122,55142,0.07774,0.20334,9.79330,0.00027,0.00000,-133880376.00000,-0.06303,0.17617,-0.60505,1.13797,23.73438,-0.46238,0.97856,0.01055,-0.00191,0.20567,0.00000,0.00000,0.00000,0.00000,1,0,
06.30 14:32:42:131,55143,0.09664,0.19486,9.80780,0.00027,0.00000,-133880376.00000,-0.06002,0.17731,-0.61199,1.13646,23.73461,-0.46297,0.97856,0.01054,-0.00191,0.20567,0.00000,0.00000,0.00000,0.00000,1,0,
06.30 14:32:42:141,55144,0.06924,0.18959,9.80370,0.00027,0.00000,-133880376.00000,-0.06203,0.17671,-0.60703,1.13765,23.73458,-0.46334,0.97856,0.01055,-0.00192,0.20567,0.00000,0.00000,0.00000,0.00000,1,0,
06.30 14:32:42:151,55145,0.06934,0.21339,9.79738,0.00027,0.00000,-133880376.00000,-0.06150,0.17434,-0.61350,1.13655,23.73468,-0.46384,0.97856,0.01054,-0.00192,0.20567,0.00000,0.00000,0.00000,0.00000,1,0,
06.30 14:32:42:163,55146,0.07701,0.21158,9.80604,0.00027,0.00000,-133880376.00000,-0.06252,0.17323,-0.60804,1.13716,23.73503,-0.46356,0.97856,0.01054,-0.00192,0.20568,0.00000,0.00000,0.00000,0.00000,1,0,
06.30 14:32:42:174,55147,0.07271,0.21665,9.79125,0.00027,0.00000,-133880376.00000,-0.06252,0.17671,-0.60703,1.13794,23.73511,-0.46363,0.97856,0.01055,-0.00192,0.20568,0.00000,0.00000,0.00000,0.00000,1,0,
06.30 14:32:42:181,55148,0.07678,0.20956,9.80947,0.00027,0.00000,-133880376.00000,-0.06103,0.17471,-0.60703,1.13789,23.73552,-0.46349,0.97856,0.01055,-0.00192,0.20568,0.00000,0.00000,0.00000,0.00000,1,0,
06.30 14:32:42:192,55149,0.08003,0.20357,9.77330,0.00027,0.00000,-133880376.00000,-0.06253,0.17519,-0.60604,1.13803,23.73561,-0.46391,0.97856,0.01055,-0.00192,0.20568,0.00000,0.00000,0.00000,0.00000,1,0,
06.30 14:32:42:202,55150,0.07714,0.20595,9.79380,0.00027,0.00000,-133880376.00000,-0.06153,0.17571,-0.60703,1.13698,23.73636,-0.46385,0.97856,0.01054,-0.00192,0.20569,0.00000,0.00000,0.00000,0.00000,1,0,
06.30 14:32:42:211,55151,0.06431,0.19984,9.79430,0.00027,0.00000,-133880376.00000,-0.06401,0.17670,-0.60705,1.13867,23.73585,-0.46478,0.97856,0.01056,-0.00193,0.20568,0.00000,0.00000,0.00000,0.00000,1,0,
06.30 14:32:42:221,55152,0.08331,0.19823,9.78129,0.00027,0.00000,-133880376.00000,-0.06400,0.17725,-0.60953,1.13886,23.73458,-0.46540,0.97856,0.01056,-0.00193,0.20567,0.00000,0.00000,0.00000,0.00000,1,0,
06.30 14:32:42:231,55153,0.09385,0.19394,9.81013,0.00027,0.00000,-133880376.00000,-0.06153,0.17522,-0.60753,1.13832,23.73465,-0.46502,0.97856,0.01056,-0.00193,0.20567,0.00000,0.00000,0.00000,0.00000,1,0,
06.30 14:32:42:241,55154,0.08521,0.20150,9.79331,0.00027,0.00000,-133880376.00000,-0.06251,0.17375,-0.60904,1.13729,23.73540,-0.46536,0.97856,0.01055,-0.00193,0.20568,0.00000,0.00000,0.00000,0.00000,1,0,
06.30 14:32:42:253,55155,0.06499,0.20232,9.79454,0.00027,0.00000,-133880376.00000,-0.06203,0.17471,-0.60704,1.13637,23.73422,-0.46425,0.97856,0.01054,-0.00193,0.20567,0.00000,0.00000,0.00000,0.00000,1,0,
06.30 14:32:42:261,55156,0.07262,0.20962,9.78837,0.00027,0.00000,-133880376.00000,-0.06153,0.17522,-0.60753,1.13613,23.73536,-0.46419,0.97856,0.01054,-0.00193,0.20568,0.00000,0.00000,0.00000,0.00000,1,0,
06.30 14:32:42:271,55157,0.07129,0.18748,9.80179,0.00027,0.00000,-133880376.00000,-0.06054,0.17622,-0.60752,1.13526,23.73579,-0.46458,0.97856,0.01053,-0.00193,0.20568,0.00000,0.00000,0.00000,0.00000,1,0,
06.30 14:32:42:281,55158,0.09049,0.19055,9.80196,0.00027,0.00000,-133880376.00000,-0.06249,0.17584,-0.61351,1.13582,23.73634,-0.46513,0.97856,0.01053,-0.00193,0.20569,0.00000,0.00000,0.00000,0.00000,1,0,
06.30 14:32:42:292,55159,0.07467,0.19659,9.80584,0.00027,0.00000,-133880376.00000,-0.06252,0.17572,-0.60753,1.13576,23.73606,-0.46475,0.97856,0.01053,-0.00193,0.20569,0.00000,0.00000,0.00000,0.00000,1,0,
06.30 14:32:42:301,55160,0.06471,0.18888,9.80825,0.00027,0.00000,-133880376.00000,-0.06104,0.17568,-0.60553,1.13613,23.73626,-0.46487,0.97856,0.01054,-0.00193,0.20569,0.00000,0.00000,0.00000,0.00000,1,0,
06.30 14:32:42:311,55161,0.08718,0.20457,9.78503,0.00027,0.00000,-133880376.00000,-0.06203,0.17371,-0.60704,1.13737,23.73753,-0.46581,0.97856,0.01055,-0.00194,0.20570,0.00000,0.00000,0.00000,0.00000,1,0,
06.30 14:32:42:322,55162,0.08171,0.21707,9.79411,0.00027,0.00000,-133880376.00000,-0.06302,0.17571,-0.60704,1.13797,23.73812,-0.46512,0.97856,0.01055,-0.00193,0.20570,0.00000,0.00000,0.00000,0.00000,1,0,
06.30 14:32:42:333,55163,0.07685,0.18977,9.78677,0.00027,0.00000,-133880376.00000,-0.06054,0.17572,-0.60752,1.13609,23.73919,-0.46479,0.97855,0.01054,-0.00193,0.20571,0.00000,0.00000,0.00000,0.00000,1,0,
06.30 14:32:42:344,55164,0.06209,0.20580,9.79109,0.00027,0.00000,-133880376.00000,-0.06303,0.17217,-0.60506,1.13693,23.73815,-0.46488,0.97856,0.01054,-0.00193,0.20570,0.00000,0.00000,0.00000,0.00000,1,0,
06.30 14:32:42:355,55165,0.08061,0.21483,9.78431,0.00027,0.00000,-133880376.00000,-0.06402,0.17568,-0.60605,1.13920,23.73764,-0.46542,0.97856,0.01056,-0.00193,0.20570,0.00000,0.00000,0.00000,0.00000,1,0,
06.30 14:32:42:363,55166,0.05845,0.21101,9.79419,0.00027,0.00000,-133880376.00000,-0.06302,0.17673,-0.60803,1.13777,23.73893,-0.46516,0.97855,0.01055,-0.00193,0.20571,0.00000,0.00000,0.00000,0.00000,1,0,
06.30 14:32:42:373,55167,0.08368,0.19974,9.80587,0.00027,0.00000,-133880376.00000,-0.06248,0.17639,-0.61599,1.13734,23.73962,-0.46594,0.97855,0.01055,-0.00194,0.20572,0.00000,0.00000,0.00000,0.00000,1,0,
06.30 14:32:42:381,55168,0.06507,0.19493,9.79719,0.00027,0.00000,-133880376.00000,-0.06103,0.17774,-0.60851,1.13806,23.73986,-0.46617,0.97855,0.01056,-0.00194,0.20572,0.00000,0.00000,0.00000,0.00000,1,0,
06.30 14:32:42:392,55169,0.08245,0.19755,9.80120,0.00027,0.00000,-133880376.00000,-0.06499,0.17475,-0.60955,1.13827,23.74010,-0.46680,0.97855,0.01056,-0.00194,0.20572,0.00000,0.00000,0.00000,0.00000,1,0,
06.30 14:32:42:401,55170,0.08093,0.19560,9.78737,0.00027,0.00000,-133880376.00000,-0.06202,0.17323,-0.60804,1.13851,23.74007,-0.46699,0.97855,0.01056,-0.00194,0.20572,0.00000,0.00000,0.00000,0.00000,1,0,
06.30 14:32:42:411,55171,0.07515,0.20624,9.78682,0.00027,0.00000,-133880376.00000,-0.06200,0.17630,-0.61151,1.13830,23.73935,-0.46663,0.97855,0.01056,-0.00194,0.20571,0.00000,0.00000,0.00000,0.00000,1,0,
06.30 14:32:42:422,55172,0.07846,0.21203,9.78159,0.00027,0.00000,-133880376.00000,-0.06500,0.17522,-0.60805,1.13941,23.74015,-0.46714,0.97855,0.01057,-0.00194,0.20572,0.00000,0.00000,0.00000,0.00000,1,0,
06.30 14:32:42:431,55173,0.09533,0.19046,9.80337,0.00027,0.00000,-133880376.00000,-0.06203,0.17720,-0.60653,1.13889,23.74004,-0.46769,0.97855,0.01057,-0.00195,0.20572,0.00000,0.00000,0.00000,0.00000,1,0,
06.30 14:32:42:441,55174,0.07084,0.20190,9.80138,0.00027,0.00000,-133880376.00000,-0.06549,0.17424,-0.60906,1.13950,23.73980,-0.46788,0.97855,0.01057,-0.00195,0.20572,0.00000,0.00000,0.00000,0.00000,1,0,
06.30 14:32:42:452,55175,0.06717,0.18998,9.79276,0.00027,0.00000,-133880376.00000,-0.06253,0.17669,-0.60604,1.13963,23.73925,-0.46810,0.97855,0.01057,-0.00195,0.20571,0.00000,0.00000,0.00000,0.00000,1,0,
06.30 14:32:42:462,55176,0.07861,0.20965,9.78491,0.00027,0.00000,-133880376.00000,-0.06153,0.17370,-0.60654,1.13910,23.73970,-0.46791,0.97855,0.01057,-0.00195,0.20572,0.00000,0.00000,0.00000,0.00000,1,0,
06.30 14:32:42:471,55177,0.06195,0.20862,9.78277,0.00027,0.00000,-133880376.00000,-0.06401,0.17373,-0.60805,1.13893,23.74024,-0.46791,0.97855,0.01057,-0.00195,0.20572,0.00000,0.00000,0.00000,0.00000,1,0,
06.30 14:32:42:481,55178,0.08335,0.20347,9.79479,0.00027,0.00000,-133880376.00000,-0.06299,0.17781,-0.61201,1.13776,23.74127,-0.46714,0.97855,0.01055,-0.00195,0.20573,0.00000,0.00000,0.00000,0.00000,1,0,
06.30 14:32:42:491,55179,0.07638,0.19531,9.79683,0.00027,0.00000,-133880376.00000,-0.06252,0.17471,-0.60704,1.13606,23.74239,-0.46709,0.97855,0.01054,-0.00195,0.20574,0.00000,0.00000,0.00000,0.00000,1,0,
06.30 14:32:42:501,55180,0.08264,0.20056,9.81376,0.00027,0.00000,-133880376.00000,-0.06203,0.17572,-0.60753,1.13520,23.74268,-0.46700,0.97855,0.01053,-0.00195,0.20574,0.00000,0.00000,0.00000,0.00000,1,0,
06.30 14:32:42:511,55181,0.08028,0.21144,9.79502,0.00027,0.00000,-133880376.00000,-0.06352,0.17669,-0.60654,1.13557,23.74264,-0.46589,0.97855,0.01053,-0.00194,0.20574,0.00000,0.00000,0.00000,0.00000,1,0,
06.30 14:32:42:521,55182,0.08552,0.20599,9.79874,0.00027,0.00000,-133880376.00000,-0.06498,0.17630,-0.61203,1.13532,23.74216,-0.46622,0.97855,0.01053,-0.00194,0.20574,0.00000,0.00000,0.00000,0.00000,1,0,
06.30 14:32:42:531,55183,0.07670,0.20962,9.79969,0.00027,0.00000,-133880376.00000,-0.06301,0.17625,-0.60903,1.13463,23.74276,-0.46655,0.97855,0.01053,-0.00195,0.20574,0.00000,0.00000,0.00000,0.00000,1,0,
06.30 14:32:42:541,55184,0.10032,0.21051,9.80368,0.00027,0.00000,-133880376.00000,-0.06100,0.17236,-0.61401,1.13397,23.74221,-0.46622,0.97855,0.01052,-0.00195,0.20574,0.00000,0.00000,0.00000,0.00000,1,0,
06.30 14:32:42:551,55185,0.07741,0.20013,9.79719,0.00027,0.00000,-133880376.00000,-0.06252,0.17774,-0.60852,1.13500,23.74141,-0.46598,0.97855,0.01053,-0.00194,0.20573,0.00000,0.00000,0.00000,0.00000,1,0,
06.30 14:32:42:561,55186,0.08636,0.19690,9.80284,0.00027,0.00000,-133880376.00000,-0.06352,0.17521,-0.60705,1.13330,23.74257,-0.46624,0.97855,0.01052,-0.00195,0.20574,0.00000,0.00000,0.00000,0.00000,1,0,
06.30 14:32:42:570,55187,0.08766,0.19925,9.79502,0.00027,0.00000,-133880376.00000,-0.06201,0.17426,-0.60953,1.13345,23.74275,-0.46649,0.97855,0.01052,-0.00195,0.20574,0.00000,0.00000,0.00000,0.00000,1,0,
06.30 14:32:42:580,55188,0.06708,0.21287,9.78209,0.00027,0.00000,-133880376.00000,-0.06203,0.17621,-0.60703,1.13379,23.74236,-0.46615,0.97855,0.01052,-0.00195,0.20574,0.00000,0.00000,0.00000,0.00000,1,0,
06.30 14:32:42:591,55189,0.08658,0.18195,9.78868,0.00027,0.00000,-133880376.00000,-0.06351,0.17372,-0.60755,1.13404,23.74206,-0.46561,0.97855,0.01052,-0.00194,0.20574,0.00000,0.00000,0.00000,0.00000,1,0,
06.30 14:32:42:601,55190,0.07569,0.19976,9.79180,0.00027,0.00000,-133880376.00000,-0.06004,0.17421,-0.60653,1.13359,23.74263,-0.46592,0.97855,0.01052,-0.00194,0.20574,0.00000,0.00000,0.00000,0.00000,1,0,
06.30 14:32:42:610,55191,0.08256,0.20806,9.80317,0.00027,0.00000,-133880376.00000,-0.06450,0.17522,-0.60805,1.13473,23.74266,-0.46604,0.97855,0.01053,-0.00194,0.20574,0.00000,0.00000,0.00000,0.00000,1,0,
06.30 14:32:42:620,55192,0.07146,0.17965,9.78364,0.00027,0.00000,-133880376.00000,-0.06400,0.17575,-0.60954,1.13503,23.74159,-0.46616,0.97855,0.01053,-0.00194,0.20573,0.00000,0.00000,0.00000,0.00000,1,0,
06.30 14:32:42:631,55193,0.08051,0.19085,9.79583,0.00027,0.00000,-133880376.00000,-0.06203,0.17370,-0.60654,1.13474,23.74207,-0.46660,0.97855,0.01053,-0.00195,0.20574,0.00000,0.00000,0.00000,0.00000,1,0,
06.30 14:32:42:640,55194,0.08186,0.19348,9.79755,0.00027,0.00000,-133880376.00000,-0.06202,0.17523,-0.60803,1.13393,23.74283,-0.46651,0.97855,0.01052,-0.00195,0.20574,0.00000,0.00000,0.00000,0.00000,1,0,
06.30 14:32:42:651,55195,0.09375,0.19994,9.79464,0.00027,0.00000,-133880376.00000,-0.06152,0.17474,-0.60853,1.13506,23.74302,-0.46530,0.97855,0.01053,-0.00194,0.20575,0.00000,0.00000,0.00000,0.00000,1,0,
06.30 14:32:42:661,55196,0.08755,0.20971,9.79655,0.00027,0.00000,-133880376.00000,-0.06253,0.17367,-0.60505,1.13422,23.74339,-0.46469,0.97855,0.01052,-0.00193,0.20575,0.00000,0.00000,0.00000,0.00000,1,0,
06.30 14:32:42:671,55197,0.07375,0.21150,9.78696,0.00027,0.00000,-133880376.00000,-0.06452,0.17466,-0.60507,1.13332,23.74441,-0.46497,0.97854,0.01051,-0.00194,0.20576,0.00000,0.00000,0.00000,0.00000,1,0,
06.30 14:32:42:680,55198,0.07533,0.20983,9.79261,0.00027,0.00000,-133880376.00000,-0.06203,0.17772,-0.60752,1.13392,23.74497,-0.46548,0.97854,0.01052,-0.00194,0.20576,0.00000,0.00000,0.00000,0.00000,1,0,
06.30 14:32:42:692,55199,0.07523,0.20224,9.79919,0.00027,0.00000,-133880376.00000,-0.06401,0.17572,-0.60804,1.13366,23.74488,-0.46490,0.97854,0.01052,-0.00193,0.20576,0.00000,0.00000,0.00000,0.00000,1,0,
06.30 14:32:42:701,55200,0.08110,0.21128,9.79115,0.00027,0.00000,-133880376.00000,-0.06251,0.17677,-0.61002,1.13431,23.74606,-0.46460,0.97854,0.01052,-0.00193,0.20577,0.00000,0.00000,0.00000,0.00000,1,0,
06.30 14:32:42:711,55201,0.07531,0.20792,9.79356,0.00027,0.00000,-133880376.00000,-0.06450,0.17424,-0.60905,1.13502,23.74581,-0.46378,0.97854,0.01053,-0.00192,0.20577,0.00000,0.00000,0.00000,0.00000,1,0,
06.30 14:32:42:721,55202,0.08666,0.20240,9.78765,0.00027,0.00000,-133880376.00000,-0.06401,0.17572,-0.60804,1.13519,23.74623,-0.46372,0.97854,0.01053,-0.00192,0.20577,0.00000,0.00000,0.00000,0.00000,1,0,
06.30 14:32:42:739,55203,0.07392,0.19210,9.79369,0.00027,0.00000,-133880376.00000,-0.06204,0.17568,-0.60554,1.13413,23.74573,-0.46433,0.97854,0.01052,-0.00193,0.20577,0.00000,0.00000,0.00000,0.00000,1,0,
06.30 14:32:42:743,55204,0.07007,0.19984,9.80322,0.00027,0.00000,-133880376.00000,-0.06203,0.17569,-0.60604,1.13423,23.74618,-0.46395,0.97854,0.01052,-0.00193,0.20577,0.00000,0.00000,0.00000,0.00000,1,0,
06.30 14:32:42:751,55205,0.07271,0.21095,9.79988,0.00027,0.00000,-133880376.00000,-0.06153,0.17873,-0.60801,1.13447,23.74619,-0.46426,0.97854,0.01052,-0.00193,0.20577,0.00000,0.00000,0.00000,0.00000,1,0,
06.30 14:32:42:761,55206,0.09240,0.19237,9.80520,0.00027,0.00000,-133880376.00000,-0.06203,0.17420,-0.60654,1.13386,23.74722,-0.46436,0.97854,0.01052,-0.00193,0.20578,0.00000,0.00000,0.00000,0.00000,1,0,
06.30 14:32:42:771,55207,0.08835,0.20533,9.79271,0.00027,0.00000,-133880376.00000,-0.06202,0.17674,-0.60852,1.13212,23.74814,-0.46394,0.97854,0.01050,-0.00193,0.20579,0.00000,0.00000,0.00000,0.00000,1,0,
06.30 14:32:42:781,55208,0.05982,0.19540,9.79755,0.00027,0.00000,-133880376.00000,-0.06202,0.17674,-0.60852,1.13300,23.74749,-0.46373,0.97854,0.01051,-0.00193,0.20578,0.00000,0.00000,0.00000,0.00000,1,0,
06.30 14:32:42:791,55209,0.08027,0.20233,9.78837,0.00027,0.00000,-133880376.00000,-0.06199,0.17635,-0.61400,1.13277,23.74798,-0.46335,0.97854,0.01051,-0.00192,0.20579,0.00000,0.00000,0.00000,0.00000,1,0,
06.30 14:32:42:801,55210,0.07855,0.20695,9.80036,0.00027,0.00000,-133880376.00000,-0.06252,0.17624,-0.60853,1.13290,23.74862,-0.46377,0.97854,0.01051,-0.00193,0.20579,0.00000,0.00000,0.00000,0.00000,1,0,
06.30 14:32:42:811,55211,0.07745,0.20521,9.79628,0.00027,0.00000,-133880376.00000,-0.06203,0.17270,-0.60655,1.13408,23.74790,-0.46485,0.97854,0.01052,-0.00193,0.20579,0.00000,0.00000,0.00000,0.00000,1,0,
06.30 14:32:42:821,55212,0.09695,0.19493,9.80339,0.00027,0.00000,-133880376.00000,-0.06301,0.17524,-0.60854,1.13518,23.74744,-0.46519,0.97854,0.01053,-0.00193,0.20578,0.00000,0.00000,0.00000,0.00000,1,0,
06.30 14:32:42:831,55213,0.07703,0.19335,9.78672,0.00027,0.00000,-133880376.00000,-0.06298,0.17535,-0.61401,1.13387,23.74796,-0.46417,0.97854,0.01052,-0.00193,0.20579,0.00000,0.00000,0.00000,0.00000,1,0,
06.30 14:32:42:841,55214,0.07221,0.21303,9.79311,0.00027,0.00000,-133880376.00000,-0.06351,0.17523,-0.60804,1.13443,23.74754,-0.46483,0.97854,0.01052,-0.00193,0.20578,0.00000,0.00000,0.00000,0.00000,1,0,
06.30 14:32:42:851,55215,0.09093,0.19368,9.78822,0.00027,0.00000,-133880376.00000,-0.06152,0.17575,-0.60902,1.13577,23.74750,-0.46495,0.97854,0.01053,-0.00193,0.20578,0.00000,0.00000,0.00000,0.00000,1,0,
06.30 14:32:42:861,55216,0.06731,0.19896,9.79604,0.00027,0.00000,-133880376.00000,-0.06351,0.17322,-0.60755,1.13745,23.74682,-0.46445,0.97854,0.01055,-0.00192,0.20578,0.00000,0.00000,0.00000,0.00000,1,0,
06.30 14:32:42:871,55217,0.08580,0.20035,9.79102,0.00027,0.00000,-133880376.00000,-0.06202,0.17474,-0.60853,1.13707,23.74722,-0.46457,0.97854,0.01054,-0.00193,0.20578,0.00000,0.00000,0.00000,0.00000,1,0,
06.30 14:32:42:880,55218,0.09197,0.21105,9.79011,0.00027,0.00000,-133880376.00000,-0.06152,0.17575,-0.60902,1.13852,23.74750,-0.46431,0.97854,0.01056,-0.00192,0.20578,0.00000,0.00000,0.00000,0.00000,1,0,
06.30 14:32:42:890,55219,0.06365,0.21089,9.79585,0.00027,0.00000,-133880376.00000,-0.06302,0.17720,-0.60654,1.14176,23.74651,-0.46365,0.97854,0.01058,-0.00191,0.20577,0.00000,0.00000,0.00000,0.00000,1,0,
06.30 14:32:42:901,55220,0.08252,0.21945,9.78572,0.00027,0.00000,-133880376.00000,-0.06152,0.17576,-0.60952,1.14211,23.74700,-0.46387,0.97854,0.01059,-0.00191,0.20578,0.00000,0.00000,0.00000,0.00000,1,0,
06.30 14:32:42:910,55221,0.07964,0.19459,9.80167,0.00027,0.00000,-133880376.00000,-0.06451,0.17421,-0.60756,1.14312,23.74798,-0.46319,0.97854,0.01059,-0.00190,0.20579,0.00000,0.00000,0.00000,0.00000,1,0,
06.30 14:32:42:920,55222,0.06217,0.20277,9.79535,0.00027,0.00000,-133880376.00000,-0.06252,0.17521,-0.60704,1.14277,23.74796,-0.46328,0.97854,0.01059,-0.00190,0.20579,0.00000,0.00000,0.00000,0.00000,1,0,
06.30 14:32:42:931,55223,0.07859,0.21134,9.78546,0.00027,0.00000,-133880376.00000,-0.06402,0.17567,-0.60556,1.14103,23.74663,-0.46340,0.97854,0.01058,-0.00191,0.20578,0.00000,0.00000,0.00000,0.00000,1,0,
06.30 14:32:42:941,55224,0.06609,0.19747,9.80172,0.00027,0.00000,-133880376.00000,-0.06252,0.17722,-0.60753,1.14141,23.74576,-0.46266,0.97854,0.01058,-0.00190,0.20577,0.00000,0.00000,0.00000,0.00000,1,0,
06.30 14:32:42:951,55225,0.08085,0.20616,9.78958,0.00027,0.00000,-133880376.00000,-0.06200,0.17683,-0.61300,1.14120,23.74560,-0.46328,0.97854,0.01058,-0.00191,0.20577,0.00000,0.00000,0.00000,0.00000,1,0,
06.30 14:32:42:961,55226,0.08489,0.20912,9.79716,0.00027,0.00000,-133880376.00000,-0.06003,0.17375,-0.60852,1.14139,23.74567,-0.46337,0.97854,0.01058,-0.00191,0.20577,0.00000,0.00000,0.00000,0.00000,1,0,
06.30 14:32:42:971,55227,0.08015,0.21375,9.78095,0.00027,0.00000,-133880376.00000,-0.06352,0.17620,-0.60704,1.14092,23.74602,-0.46294,0.97854,0.01057,-0.00190,0.20577,0.00000,0.00000,0.00000,0.00000,1,0,
06.30 14:32:42:981,55228,0.08019,0.18932,9.80673,0.00027,0.00000,-133880376.00000,-0.06252,0.17422,-0.60754,1.13956,23.74451,-0.46299,0.97854,0.01056,-0.00191,0.20576,0.00000,0.00000,0.00000,0.00000,1,0,
06.30 14:32:42:991,55229,0.06794,0.19719,9.80627,0.00027,0.00000,-133880376.00000,-0.06103,0.17325,-0.60853,1.14167,23.74385,-0.46412,0.97855,0.01058,-0.00191,0.20575,0.00000,0.00000,0.00000,0.00000,1,0,
06.30 14:32:43:001,55230,0.07674,0.20080,9.78217,0.00027,0.00000,-133880376.00000,-0.06251,0.17825,-0.60902,1.14348,23.74444,-0.46343,0.97854,0.01060,-0.00190,0.20576,0.00000,0.00000,0.00000,0.00000,1,0,
06.30 14:32:43:011,55231,0.06847,0.20168,9.79347,0.00027,0.00000,-133880376.00000,-0.06497,0.17734,-0.61402,1.14262,23.74479,-0.46342,0.97854,0.01059,-0.00191,0.20576,0.00000,0.00000,0.00000,0.00000,1,0,
06.30 14:32:43:021,55232,0.07594,0.21261,9.80026,0.00027,0.00000,-133880376.00000,-0.06202,0.17424,-0.60853,1.14287,23.74501,-0.46322,0.97854,0.01059,-0.00190,0.20576,0.00000,0.00000,0.00000,0.00000,1,0,
06.30 14:32:43:031,55233,0.08591,0.20715,9.79393,0.00027,0.00000,-133880376.00000,-0.06252,0.17674,-0.60853,1.14164,23.74562,-0.46295,0.97854,0.01058,-0.00190,0.20577,0.00000,0.00000,0.00000,0.00000,1,0,
06.30 14:32:43:041,55234,0.06031,0.18346,9.78658,0.00027,0.00000,-133880376.00000,-0.06301,0.17573,-0.60804,1.14051,23.74591,-0.46274,0.97854,0.01057,-0.00190,0.20577,0.00000,0.00000,0.00000,0.00000,1,0,
06.30 14:32:43:050,55235,0.08121,0.20170,9.79831,0.00027,0.00000,-133880376.00000,-0.06052,0.17529,-0.61051,1.14169,23.74493,-0.46179,0.97854,0.01058,-0.00189,0.20576,0.00000,0.00000,0.00000,0.00000,1,0,
06.30 14:32:43:060,55236,0.06561,0.20213,9.80780,0.00027,0.00000,-133880376.00000,-0.06450,0.17574,-0.60904,1.14153,23.74510,-0.46034,0.97854,0.01057,-0.00188,0.20576,0.00000,0.00000,0.00000,0.00000,1,0,
06.30 14:32:43:071,55237,0.06833,0.18833,9.80880,0.00027,0.00000,-133880376.00000,-0.06103,0.17422,-0.60753,1.13961,23.74558,-0.46024,0.97854,0.01056,-0.00188,0.20577,0.00000,0.00000,0.00000,0.00000,1,0,
06.30 14:32:43:081,55238,0.08001,0.19778,9.78577,0.00027,0.00000,-133880376.00000,-0.06052,0.17628,-0.61050,1.13915,23.74640,-0.46045,0.97854,0.01055,-0.00189,0.20577,0.00000,0.00000,0.00000,0.00000,1,0,
06.30 14:32:43:090,55239,0.07269,0.21540,9.80823,0.00027,0.00000,-133880376.00000,-0.06351,0.17572,-0.60754,1.13991,23.74522,-0.46031,0.97854,0.01056,-0.00188,0.20576,0.00000,0.00000,0.00000,0.00000,1,0,
06.30 14:32:43:101,55240,0.08600,0.21061,9.80238,0.00027,0.00000,-133880376.00000,-0.06103,0.17422,-0.60753,1.14082,23.74500,-0.46045,0.97854,0.01057,-0.00188,0.20576,0.00000,0.00000,0.00000,0.00000,1,0,
06.30 14:32:43:111,55241,0.07473,0.19186,9.78732,0.00027,0.00000,-133880376.00000,-0.06401,0.17371,-0.60706,1.13954,23.74578,-0.45935,0.97854,0.01056,-0.00188,0.20577,0.00000,0.00000,0.00000,0.00000,1,0,
06.30 14:32:43:121,55242,0.05464,0.20439,9.78112,0.00027,0.00000,-133880376.00000,-0.06352,0.17518,-0.60555,1.14135,23.74518,-0.45920,0.97854,0.01057,-0.00187,0.20576,0.00000,0.00000,0.00000,0.00000,1,0,
06.30 14:32:43:130,55243,0.07661,0.20329,9.80069,0.00027,0.00000,-133880376.00000,-0.06202,0.17522,-0.60753,1.14071,23.74523,-0.46001,0.97854,0.01057,-0.00188,0.20576,0.00000,0.00000,0.00000,0.00000,1,0,
06.30 14:32:43:142,55244,0.06777,0.20712,9.80580,0.00027,0.00000,-133880376.00000,-0.06252,0.17423,-0.60804,1.13947,23.74595,-0.45963,0.97854,0.01056,-0.00188,0.20577,0.00000,0.00000,0.00000,0.00000,1,0,
06.30 14:32:43:151,55245,0.08086,0.20016,9.79481,0.00027,0.00000,-133880376.00000,-0.06102,0.17575,-0.60902,1.13995,23.74675,-0.46012,0.97854,0.01056,-0.00188,0.20578,0.00000,0.00000,0.00000,0.00000,1,0,
06.30 14:32:43:160,55246,0.08920,0.19807,9.80830,0.00027,0.00000,-133880376.00000,-0.06450,0.17472,-0.60805,1.13927,23.74690,-0.45889,0.97854,0.01055,-0.00187,0.20578,0.00000,0.00000,0.00000,0.00000,1,0,
06.30 14:32:43:171,55247,0.08056,0.19443,9.79352,0.00027,0.00000,-133880376.00000,-0.06103,0.17623,-0.60802,1.13984,23.74624,-0.45947,0.97854,0.01056,-0.00188,0.20577,0.00000,0.00000,0.00000,0.00000,1,0,
06.30 14:32:43:181,55248,0.07656,0.19868,9.78665,0.00027,0.00000,-133880376.00000,-0.06252,0.17371,-0.60704,1.13888,23.74659,-0.46046,0.97854,0.01055,-0.00189,0.20578,0.00000,0.00000,0.00000,0.00000,1,0,
06.30 14:32:43:191,55249,0.09483,0.22111,9.78429,0.00027,0.00000,-133880376.00000,-0.06302,0.17570,-0.60654,1.14023,23.74545,-0.45980,0.97854,0.01056,-0.00188,0.20577,0.00000,0.00000,0.00000,0.00000,1,0,
06.30 14:32:43:200,55250,0.07326,0.19644,9.80630,0.00027,0.00000,-133880376.00000,-0.06501,0.17819,-0.60655,1.14020,23.74612,-0.45935,0.97854,0.01056,-0.00188,0.20577,0.00000,0.00000,0.00000,0.00000,1,0,
06.30 14:32:43:211,55251,0.07687,0.19415,9.78563,0.00027,0.00000,-133880376.00000,-0.06452,0.17268,-0.60557,1.13923,23.74585,-0.45978,0.97854,0.01055,-0.00188,0.20577,0.00000,0.00000,0.00000,0.00000,1,0,
06.30 14:32:43:221,55252,0.08168,0.20386,9.80165,0.00027,0.00000,-133880376.00000,-0.06451,0.17568,-0.60606,1.13993,23.74499,-0.46043,0.97854,0.01056,-0.00189,0.20576,0.00000,0.00000,0.00000,0.00000,1,0,
06.30 14:32:43:231,55253,0.09614,0.19692,9.78139,0.00027,0.00000,-133880376.00000,-0.06301,0.17727,-0.61002,1.14024,23.74517,-0.46000,0.97854,0.01056,-0.00188,0.20576,0.00000,0.00000,0.00000,0.00000,1,0,
06.30 14:32:43:240,55254,0.08348,0.18208,9.78398,0.00027,0.00000,-133880376.00000,-0.06153,0.17421,-0.60703,1.13891,23.74519,-0.46047,0.97854,0.01055,-0.00189,0.20576,0.00000,0.00000,0.00000,0.00000,1,0,
06.30 14:32:43:251,55255,0.08245,0.21142,9.79719,0.00027,0.00000,-133880376.00000,-0.06104,0.17720,-0.60652,1.14029,23.74410,-0.46088,0.97854,0.01057,-0.00189,0.20575,0.00000,0.00000,0.00000,0.00000,1,0,
06.30 14:32:43:261,55256,0.09756,0.20096,9.79156,0.00027,0.00000,-133880376.00000,-0.06152,0.17225,-0.60854,1.14099,23.74336,-0.46059,0.97855,0.01057,-0.00188,0.20575,0.00000,0.00000,0.00000,0.00000,1,0,
06.30 14:32:43:271,55257,0.06838,0.18908,9.79762,0.00027,0.00000,-133880376.00000,-0.06149,0.17787,-0.61498,1.14220,23.74435,-0.46018,0.97854,0.01058,-0.00188,0.20576,0.00000,0.00000,0.00000,0.00000,1,0,
06.30 14:32:43:280,55258,0.09215,0.21481,9.79273,0.00027,0.00000,-133880376.00000,-0.06050,0.17485,-0.61349,1.14187,23.74485,-0.46061,0.97854,0.01058,-0.00188,0.20576,0.00000,0.00000,0.00000,0.00000,1,0,
06.30 14:32:43:291,55259,0.07722,0.20528,9.78691,0.00027,0.00000,-133880376.00000,-0.06301,0.17475,-0.60904,1.14188,23.74398,-0.46099,0.97854,0.01058,-0.00189,0.20575,0.00000,0.00000,0.00000,0.00000,1,0,
06.30 14:32:43:301,55260,0.08263,0.20189,9.79332,0.00027,0.00000,-133880376.00000,-0.06351,0.17771,-0.60754,1.14277,23.74372,-0.46117,0.97855,0.01059,-0.00189,0.20575,0.00000,0.00000,0.00000,0.00000,1,0,
06.30 14:32:43:311,55261,0.07327,0.19691,9.79521,0.00027,0.00000,-133880376.00000,-0.06446,0.17587,-0.61551,1.14191,23.74345,-0.46107,0.97855,0.01058,-0.00189,0.20575,0.00000,0.00000,0.00000,0.00000,1,0,
06.30 14:32:43:320,55262,0.08442,0.20428,9.79812,0.00027,0.00000,-133880376.00000,-0.06302,0.17623,-0.60803,1.14286,23.74228,-0.46146,0.97855,0.01059,-0.00189,0.20574,0.00000,0.00000,0.00000,0.00000,1,0,
06.30 14:32:43:330,55263,0.08535,0.20352,9.79140,0.00027,0.00000,-133880376.00000,-0.06050,0.17485,-0.61349,1.14343,23.74259,-0.46159,0.97855,0.01059,-0.00189,0.20574,0.00000,0.00000,0.00000,0.00000,1,0,
06.30 14:32:43:341,55264,0.08450,0.20580,9.79702,0.00027,0.00000,-133880376.00000,-0.06400,0.17526,-0.60954,1.14229,23.74313,-0.46091,0.97855,0.01058,-0.00189,0.20575,0.00000,0.00000,0.00000,0.00000,1,0,
06.30 14:32:43:351,55265,0.06621,0.19091,9.80584,0.00027,0.00000,-133880376.00000,-0.06053,0.17427,-0.60951,1.14350,23.72569,-0.46913,0.97858,0.01061,-0.00196,0.20560,0.00000,0.00000,0.00000,0.00000,1,0,
06.30 14:32:43:360,55266,0.07997,0.20237,9.78529,0.00027,0.00000,-133880376.00000,-0.06450,0.17672,-0.60804,1.14545,23.72603,-0.46828,0.97858,0.01062,-0.00194,0.20560,0.00000,0.00000,0.00000,0.00000,1,0,
06.30 14:32:43:370,55267,0.06869,0.20923,9.80117,0.00027,0.00000,-133880376.00000,-0.06302,0.17671,-0.60704,1.14567,23.72598,-0.46895,0.97858,0.01063,-0.00195,0.20560,0.00000,0.00000,0.00000,0.00000,1,0,
06.30 14:32:43:380,55268,0.06218,0.19955,9.80120,0.00027,0.00000,-133880376.00000,-0.06104,0.17569,-0.60603,1.14516,23.72510,-0.46817,0.97858,0.01062,-0.00194,0.20559,0.00000,0.00000,0.00000,0.00000,1,0,
06.30 14:32:43:390,55269,0.07467,0.17863,9.81672,0.00027,0.00000,-133880376.00000,-0.06252,0.17622,-0.60753,1.14552,23.72509,-0.46865,0.97858,0.01062,-0.00195,0.20559,0.00000,0.00000,0.00000,0.00000,1,0,
06.30 14:32:43:400,55270,0.07655,0.21175,9.78040,0.00027,0.00000,-133880376.00000,-0.06350,0.17725,-0.60953,1.14654,23.72506,-0.46873,0.97858,0.01063,-0.00195,0.20559,0.00000,0.00000,0.00000,0.00000,1,0,
06.30 14:32:43:410,55271,0.09017,0.19043,9.79855,0.00027,0.00000,-133880376.00000,-0.06546,0.17584,-0.61403,1.14591,23.72464,-0.46841,0.97858,0.01063,-0.00194,0.20559,0.00000,0.00000,0.00000,0.00000,1,0,
06.30 14:32:43:420,55272,0.06509,0.18907,9.79500,0.00027,0.00000,-133880376.00000,-0.06054,0.17423,-0.60752,1.14522,23.72464,-0.46887,0.97858,0.01062,-0.00195,0.20559,0.00000,0.00000,0.00000,0.00000,1,0,
06.30 14:32:43:432,55273,0.08112,0.20752,9.78543,0.00027,0.00000,-133880376.00000,-0.06252,0.17674,-0.60853,1.14589,23.72582,-0.46829,0.97858,0.01063,-0.00194,0.20560,0.00000,0.00000,0.00000,0.00000,1,0,
06.30 14:32:43:443,55274,0.07179,0.20649,9.80253,0.00027,0.00000,-133880376.00000,-0.06351,0.17373,-0.60805,1.14455,23.72634,-0.46843,0.97858,0.01061,-0.00195,0.20560,0.00000,0.00000,0.00000,0.00000,1,0,
06.30 14:32:43:454,55275,0.09824,0.19449,9.79571,0.00027,0.00000,-133880376.00000,-0.06055,0.17469,-0.60553,1.14317,23.72725,-0.46900,0.97857,0.01060,-0.00195,0.20561,0.00000,0.00000,0.00000,0.00000,1,0,
06.30 14:32:43:462,55276,0.07511,0.19579,9.79111,0.00027,0.00000,-133880376.00000,-0.06450,0.17423,-0.60855,1.14232,23.72698,-0.46872,0.97857,0.01060,-0.00195,0.20561,0.00000,0.00000,0.00000,0.00000,1,0,
06.30 14:32:43:471,55277,0.08806,0.20490,9.79046,0.00027,0.00000,-133880376.00000,-0.06251,0.17675,-0.60902,1.14243,23.72648,-0.46818,0.97858,0.01060,-0.00195,0.20560,0.00000,0.00000,0.00000,0.00000,1,0,
06.30 14:32:43:483,55278,0.08855,0.22310,9.79225,0.00027,0.00000,-133880376.00000,-0.06401,0.17621,-0.60755,1.14223,23.72682,-0.46798,0.97858,0.01059,-0.00195,0.20561,0.00000,0.00000,0.00000,0.00000,1,0,
06.30 14:32:43:490,55279,0.08248,0.21200,9.79674,0.00027,0.00000,-133880376.00000,-0.06301,0.17625,-0.60903,1.14171,23.72717,-0.46837,0.97857,0.01059,-0.00195,0.20561,0.00000,0.00000,0.00000,0.00000,1,0,
06.30 14:32:43:500,55280,0.07287,0.22233,9.79642,0.00027,0.00000,-133880376.00000,-0.06153,0.17573,-0.60802,1.14167,23.72642,-0.46909,0.97858,0.01059,-0.00196,0.20560,0.00000,0.00000,0.00000,0.00000,1,0,
06.30 14:32:43:512,55281,0.09159,0.19676,9.80701,0.00027,0.00000,-133880376.00000,-0.06202,0.17473,-0.60803,1.13999,23.72687,-0.46842,0.97858,0.01058,-0.00196,0.20561,0.00000,0.00000,0.00000,0.00000,1,0,
06.30 14:32:43:521,55282,0.07132,0.19539,9.78610,0.00027,0.00000,-133880376.00000,-0.06352,0.17370,-0.60655,1.14058,23.72710,-0.46750,0.97858,0.01058,-0.00195,0.20561,0.00000,0.00000,0.00000,0.00000,1,0,
06.30 14:32:43:531,55283,0.07461,0.21130,9.80608,0.00027,0.00000,-133880376.00000,-0.06152,0.17626,-0.60952,1.14129,23.72688,-0.46682,0.97858,0.01058,-0.00194,0.20561,0.00000,0.00000,0.00000,0.00000,1,0,
06.30 14:32:43:541,55284,0.07009,0.20588,9.78427,0.00027,0.00000,-133880376.00000,-0.06300,0.17529,-0.61102,1.13939,23.72704,-0.46728,0.97858,0.01057,-0.00195,0.20561,0.00000,0.00000,0.00000,0.00000,1,0,
06.30 14:32:43:551,55285,0.06552,0.18751,9.79218,0.00027,0.00000,-133880376.00000,-0.06202,0.17575,-0.60902,1.13824,23.72775,-0.46805,0.97857,0.01056,-0.00196,0.20561,0.00000,0.00000,0.00000,0.00000,1,0,
06.30 14:32:43:561,55286,0.08088,0.21179,9.80246,0.00027,0.00000,-133880376.00000,-0.06351,0.17373,-0.60805,1.13831,23.72760,-0.46785,0.97857,0.01056,-0.00195,0.20561,0.00000,0.00000,0.00000,0.00000,1,0,
06.30 14:32:43:570,55287,0.06931,0.20701,9.78784,0.00027,0.00000,-133880376.00000,-0.06251,0.17475,-0.60903,1.13893,23.72788,-0.46708,0.97857,0.01056,-0.00195,0.20562,0.00000,0.00000,0.00000,0.00000,1,0,
06.30 14:32:43:581,55288,0.08546,0.21851,9.80885,0.00027,0.00000,-133880376.00000,-0.06499,0.17525,-0.60955,1.13786,23.72838,-0.46597,0.97857,0.01055,-0.00194,0.20562,0.00000,0.00000,0.00000,0.00000,1,0,
06.30 14:32:43:592,55289,0.08980,0.18049,9.78679,0.00027,0.00000,-133880376.00000,-0.06448,0.17330,-0.61154,1.13873,23.72850,-0.46593,0.97857,0.01056,-0.00194,0.20562,0.00000,0.00000,0.00000,0.00000,1,0,
06.30 14:32:43:601,55290,0.07894,0.20138,9.80687,0.00027,0.00000,-133880376.00000,-0.06252,0.17574,-0.60853,1.13935,23.72763,-0.46460,0.97857,0.01056,-0.00192,0.20561,0.00000,0.00000,0.00000,0.00000,1,0,
06.30 14:32:43:611,55291,0.10097,0.18585,9.78923,0.00027,0.00000,-133880376.00000,-0.06202,0.17472,-0.60753,1.13944,23.72717,-0.46410,0.97858,0.01056,-0.00192,0.20561,0.00000,0.00000,0.00000,0.00000,1,0,
06.30 14:32:43:620,55292,0.06808,0.19704,9.79285,0.00027,0.00000,-133880376.00000,-0.06153,0.17672,-0.60752,1.13973,23.72789,-0.46284,0.97857,0.01056,-0.00191,0.20562,0.00000,0.00000,0.00000,0.00000,1,0,
06.30 14:32:43:631,55293,0.08117,0.19169,9.78400,0.00027,0.00000,-133880376.00000,-0.06451,0.17370,-0.60706,1.13988,23.72728,-0.46273,0.97857,0.01056,-0.00191,0.20561,0.00000,0.00000,0.00000,0.00000,1,0,
06.30 14:32:43:641,55294,0.08017,0.18729,9.79266,0.00027,0.00000,-133880376.00000,-0.06100,0.17235,-0.61351,1.13934,23.72722,-0.46239,0.97858,0.01056,-0.00190,0.20561,0.00000,0.00000,0.00000,0.00000,1,0,
06.30 14:32:43:651,55295,0.09670,0.19124,9.80322,0.00027,0.00000,-133880376.00000,-0.06251,0.17776,-0.60952,1.13963,23.72671,-0.46196,0.97858,0.01056,-0.00190,0.20561,0.00000,0.00000,0.00000,0.00000,1,0,
06.30 14:32:43:662,55296,0.05619,0.20183,9.79416,0.00027,0.00000,-133880376.00000,-0.06402,0.17369,-0.60606,1.14138,23.72684,-0.46239,0.97858,0.01058,-0.00190,0.20561,0.00000,0.00000,0.00000,0.00000,1,0,
06.30 14:32:43:672,55297,0.08126,0.19746,9.80269,0.00027,0.00000,-133880376.00000,-0.06352,0.17520,-0.60655,1.14177,23.72590,-0.46279,0.97858,0.01058,-0.00190,0.20560,0.00000,0.00000,0.00000,0.00000,1,0,
06.30 14:32:43:680,55298,0.10221,0.20364,9.80046,0.00027,0.00000,-133880376.00000,-0.06252,0.17672,-0.60753,1.14183,23.72729,-0.46276,0.97857,0.01058,-0.00190,0.20561,0.00000,0.00000,0.00000,0.00000,1,0,
06.30 14:32:43:691,55299,0.06689,0.20201,9.79011,0.00027,0.00000,-133880376.00000,-0.06203,0.17520,-0.60654,1.14231,23.72774,-0.46328,0.97857,0.01059,-0.00191,0.20561,0.00000,0.00000,0.00000,0.00000,1,0,
06.30 14:32:43:701,55300,0.06226,0.19156,9.79760,0.00027,0.00000,-133880376.00000,-0.06203,0.17720,-0.60653,1.14187,23.72772,-0.46450,0.97857,0.01058,-0.00192,0.20561,0.00000,0.00000,0.00000,0.00000,1,0,
06.30 14:32:43:711,55301,0.08049,0.18395,9.79280,0.00027,0.00000,-133880376.00000,-0.06153,0.17372,-0.60753,1.14244,23.72761,-0.46461,0.97857,0.01059,-0.00192,0.20561,0.00000,0.00000,0.00000,0.00000,1,0,
06.30 14:32:43:720,55302,0.08582,0.21223,9.79369,0.00027,0.00000,-133880376.00000,-0.06103,0.17472,-0.60753,1.14330,23.72772,-0.46415,0.97857,0.01060,-0.00191,0.20561,0.00000,0.00000,0.00000,0.00000,1,0,
06.30 14:32:43:731,55303,0.07793,0.21122,9.78746,0.00027,0.00000,-133880376.00000,-0.06153,0.17470,-0.60654,1.14323,23.72743,-0.46380,0.97857,0.01060,-0.00191,0.20561,0.00000,0.00000,0.00000,0.00000,1,0,
06.30 14:32:43:741,55304,0.06660,0.21232,9.79388,0.00027,0.00000,-133880376.00000,-0.06152,0.17374,-0.60853,1.14182,23.72748,-0.46394,0.97857,0.01058,-0.00191,0.20561,0.00000,0.00000,0.00000,0.00000,1,0,
06.30 14:32:43:752,55305,0.07086,0.19267,9.79986,0.00027,0.00000,-133880376.00000,-0.06302,0.17570,-0.60654,1.14007,23.72768,-0.46404,0.97857,0.01057,-0.00192,0.20561,0.00000,0.00000,0.00000,0.00000,1,0,
06.30 14:32:43:761,55306,0.06872,0.19956,9.78780,0.00027,0.00000,-133880376.00000,-0.06302,0.17420,-0.60655,1.14036,23.72841,-0.46287,0.97857,0.01057,-0.00191,0.20562,0.00000,0.00000,0.00000,0.00000,1,0,
06.30 14:32:43:771,55307,0.09405,0.21473,9.78517,0.00027,0.00000,-133880376.00000,-0.06104,0.17618,-0.60553,1.14138,23.72849,-0.46300,0.97857,0.01058,-0.00191,0.20562,0.00000,0.00000,0.00000,0.00000,1,0,
06.30 14:32:43:781,55308,0.07644,0.19771,9.79340,0.00027,0.00000,-133880376.00000,-0.06152,0.17674,-0.60852,1.14077,23.72858,-0.46286,0.97857,0.01057,-0.00191,0.20562,0.00000,0.00000,0.00000,0.00000,1,0,
06.30 14:32:43:791,55309,0.07269,0.20191,9.79247,0.00027,0.00000,-133880376.00000,-0.06103,0.17274,-0.60803,1.14192,23.72840,-0.46329,0.97857,0.01058,-0.00191,0.20562,0.00000,0.00000,0.00000,0.00000,1,0,
06.30 14:32:43:800,55310,0.09403,0.20870,9.79972,0.00027,0.00000,-133880376.00000,-0.06250,0.17531,-0.61202,1.14230,23.72760,-0.46359,0.97857,0.01059,-0.00191,0.20561,0.00000,0.00000,0.00000,0.00000,1,0,
06.30 14:32:43:810,55311,0.07773,0.20470,9.79416,0.00027,0.00000,-133880376.00000,-0.06053,0.17276,-0.60902,1.14183,23.72745,-0.46263,0.97857,0.01058,-0.00190,0.20561,0.00000,0.00000,0.00000,0.00000,1,0,
06.30 14:32:43:821,55312,0.07503,0.20358,9.80437,0.00027,0.00000,-133880376.00000,-0.06400,0.17624,-0.60904,1.14285,23.72748,-0.46331,0.97857,0.01059,-0.00191,0.20561,0.00000,0.00000,0.00000,0.00000,1,0,
06.30 14:32:43:831,55313,0.09702,0.18744,9.79664,0.00027,0.00000,-133880376.00000,-0.06353,0.17465,-0.60406,1.14406,23.72676,-0.46281,0.97858,0.01060,-0.00190,0.20561,0.00000,0.00000,0.00000,0.00000,1,0,
06.30 14:32:43:841,55314,0.07995,0.19691,9.78767,0.00027,0.00000,-133880376.00000,-0.06302,0.17571,-0.60704,1.14505,23.72639,-0.46266,0.97858,0.01061,-0.00190,0.20560,0.00000,0.00000,0.00000,0.00000,1,0,
06.30 14:32:43:851,55315,0.09262,0.18826,9.79528,0.00027,0.00000,-133880376.00000,-0.06451,0.17620,-0.60705,1.14414,23.72658,-0.46302,0.97858,0.01060,-0.00190,0.20560,0.00000,0.00000,0.00000,0.00000,1,0,
06.30 14:32:43:860,55316,0.07750,0.20883,9.80858,0.00027,0.00000,-133880376.00000,-0.06252,0.17372,-0.60754,1.14477,23.72825,-0.46360,0.97857,0.01061,-0.00191,0.20562,0.00000,0.00000,0.00000,0.00000,1,0,
06.30 14:32:43:870,55317,0.08098,0.19486,9.79411,0.00027,0.00000,-133880376.00000,-0.06202,0.17574,-0.60853,1.14522,23.72907,-0.46327,0.97857,0.01061,-0.00190,0.20563,0.00000,0.00000,0.00000,0.00000,1,0,
06.30 14:32:43:880,55318,0.07294,0.21010,9.79053,0.00027,0.00000,-133880376.00000,-0.06302,0.17371,-0.60705,1.14391,23.72948,-0.46298,0.97857,0.01060,-0.00190,0.20563,0.00000,0.00000,0.00000,0.00000,1,0,
06.30 14:32:43:891,55319,0.09801,0.19964,9.80263,0.00027,0.00000,-133880376.00000,-0.06153,0.17621,-0.60703,1.14331,23.72929,-0.46294,0.97857,0.01059,-0.00190,0.20563,0.00000,0.00000,0.00000,0.00000,1,0,
06.30 14:32:43:902,55320,0.07302,0.19407,9.79089,0.00027,0.00000,-133880376.00000,-0.06202,0.17425,-0.60903,1.14469,23.72927,-0.46375,0.97857,0.01061,-0.00191,0.20563,0.00000,0.00000,0.00000,0.00000,1,0,
06.30 14:32:43:912,55321,0.09088,0.20645,9.79984,0.00027,0.00000,-133880376.00000,-0.06501,0.17470,-0.60706,1.14345,23.72912,-0.46376,0.97857,0.01060,-0.00191,0.20563,0.00000,0.00000,0.00000,0.00000,1,0,
06.30 14:32:43:921,55322,0.09112,0.19185,9.78858,0.00027,0.00000,-133880376.00000,-0.06301,0.17526,-0.60953,1.14291,23.72815,-0.46326,0.97857,0.01059,-0.00191,0.20562,0.00000,0.00000,0.00000,0.00000,1,0,
06.30 14:32:43:930,55323,0.06775,0.19560,9.81083,0.00027,0.00000,-133880376.00000,-0.06402,0.17568,-0.60605,1.14374,23.72662,-0.46339,0.97858,0.01060,-0.00191,0.20561,0.00000,0.00000,0.00000,0.00000,1,0,
06.30 14:32:43:940,55324,0.07830,0.20701,9.79189,0.00027,0.00000,-133880376.00000,-0.06152,0.17575,-0.60902,1.14531,23.72700,-0.46372,0.97857,0.01061,-0.00191,0.20561,0.00000,0.00000,0.00000,0.00000,1,0,
06.30 14:32:43:951,55325,0.06887,0.20319,9.78961,0.00027,0.00000,-133880376.00000,-0.06152,0.17624,-0.60852,1.14559,23.72612,-0.46225,0.97858,0.01061,-0.00189,0.20560,0.00000,0.00000,0.00000,0.00000,1,0,
06.30 14:32:43:961,55326,0.08371,0.18702,9.80038,0.00027,0.00000,-133880376.00000,-0.06203,0.17369,-0.60605,1.14560,23.72707,-0.46335,0.97857,0.01061,-0.00190,0.20561,0.00000,0.00000,0.00000,0.00000,1,0,
06.30 14:32:43:972,55327,0.07696,0.19025,9.80405,0.00027,0.00000,-133880376.00000,-0.06302,0.17520,-0.60655,1.14766,23.72750,-0.46300,0.97857,0.01063,-0.00189,0.20561,0.00000,0.00000,0.00000,0.00000,1,0,
06.30 14:32:43:982,55328,0.07552,0.18705,9.79647,0.00027,0.00000,-133880376.00000,-0.06450,0.17373,-0.60806,1.14789,23.72708,-0.46344,0.97857,0.01063,-0.00190,0.20561,0.00000,0.00000,0.00000,0.00000,1,0,
06.30 14:32:43:992,55329,0.09519,0.21249,9.80828,0.00027,0.00000,-133880376.00000,-0.06152,0.17525,-0.60902,1.14778,23.72750,-0.46436,0.97857,0.01064,-0.00191,0.20561,0.00000,0.00000,0.00000,0.00000,1,0,
06.30 14:32:44:000,55330,0.08352,0.18927,9.80668,0.00027,0.00000,-133880376.00000,-0.06451,0.17271,-0.60706,1.14952,23.72710,-0.46495,0.97857,0.01065,-0.00191,0.20561,0.00000,0.00000,0.00000,0.00000,1,0,
06.30 14:32:44:010,55331,0.08538,0.19054,9.80580,0.00027,0.00000,-133880376.00000,-0.06302,0.17422,-0.60754,1.14884,23.72595,-0.46467,0.97858,0.01064,-0.00191,0.20560,0.00000,0.00000,0.00000,0.00000,1,0,
06.30 14:32:44:020,55332,0.09442,0.18380,9.80725,0.00027,0.00000,-133880376.00000,-0.06447,0.17736,-0.61501,1.14914,23.72632,-0.46421,0.97858,0.01065,-0.00190,0.20560,0.00000,0.00000,0.00000,0.00000,1,0,
06.30 14:32:44:030,55333,0.10474,0.19628,9.79643,0.00027,0.00000,-133880376.00000,-0.06251,0.17174,-0.60854,1.14926,23.72593,-0.46388,0.97858,0.01065,-0.00190,0.20560,0.00000,0.00000,0.00000,0.00000,1,0,
06.30 14:32:44:040,55334,0.06716,0.21568,9.78372,0.00027,0.00000,-133880376.00000,-0.06201,0.17427,-0.61002,1.15166,23.72701,-0.46393,0.97857,0.01067,-0.00190,0.20561,0.00000,0.00000,0.00000,0.00000,1,0,
06.30 14:32:44:051,55335,0.09284,0.19495,9.78796,0.00027,0.00000,-133880376.00000,-0.06104,0.17720,-0.60652,1.15242,23.72610,-0.46411,0.97858,0.01067,-0.00190,0.20560,0.00000,0.00000,0.00000,0.00000,1,0,
06.30 14:32:44:062,55336,0.08158,0.20666,9.80319,0.00027,0.00000,-133880376.00000,-0.06252,0.17421,-0.60704,1.15311,23.72518,-0.46487,0.97858,0.01068,-0.00190,0.20559,0.00000,0.00000,0.00000,0.00000,1,0,
06.30 14:32:44:072,55337,0.10062,0.17400,9.79047,0.00027,0.00000,-133880376.00000,-0.06401,0.17671,-0.60754,1.15427,23.72478,-0.46518,0.97858,0.01069,-0.00190,0.20559,0.00000,0.00000,0.00000,0.00000,1,0,
06.30 14:32:44:080,55338,0.07728,0.20408,9.81099,0.00027,0.00000,-133880376.00000,-0.06301,0.17423,-0.60804,1.15464,23.72530,-0.46585,0.97858,0.01070,-0.00191,0.20559,0.00000,0.00000,0.00000,0.00000,1,0,
06.30 14:32:44:091,55339,0.07412,0.20910,9.78827,0.00027,0.00000,-133880376.00000,-0.06253,0.17768,-0.60554,1.15518,23.72523,-0.46635,0.97858,0.01070,-0.00191,0.20559,0.00000,0.00000,0.00000,0.00000,1,0,
06.30 14:32:44:100,55340,0.08653,0.21147,9.79121,0.00027,0.00000,-133880376.00000,-0.06203,0.17569,-0.60604,1.15687,23.72413,-0.46703,0.97858,0.01072,-0.00191,0.20558,0.00000,0.00000,0.00000,0.00000,1,0,
06.30 14:32:44:110,55341,0.10522,0.21114,9.79731,0.00027,0.00000,-133880376.00000,-0.06451,0.17619,-0.60655,1.15443,23.72343,-0.46781,0.97858,0.01070,-0.00192,0.20558,0.00000,0.00000,0.00000,0.00000,1,0,
06.30 14:32:44:120,55342,0.06920,0.20368,9.78234,0.00027,0.00000,-133880376.00000,-0.06401,0.17423,-0.60805,1.15439,23.72277,-0.46850,0.97858,0.01070,-0.00193,0.20557,0.00000,0.00000,0.00000,0.00000,1,0,
06.30 14:32:44:132,55343,0.08556,0.22044,9.81289,0.00027,0.00000,-133880376.00000,-0.06204,0.17468,-0.60554,1.15829,23.72268,-0.46827,0.97858,0.01073,-0.00192,0.20557,0.00000,0.00000,0.00000,0.00000,1,0,
06.30 14:32:44:142,55344,0.06701,0.19294,9.77716,0.00027,0.00000,-133880376.00000,-0.06253,0.17718,-0.60554,1.16026,23.72191,-0.46806,0.97858,0.01075,-0.00192,0.20557,0.00000,0.00000,0.00000,0.00000,1,0,
06.30 14:32:44:151,55345,0.06925,0.20812,9.79151,0.00027,0.00000,-133880376.00000,-0.06104,0.17670,-0.60652,1.16024,23.72172,-0.46747,0.97858,0.01075,-0.00191,0.20556,0.00000,0.00000,0.00000,0.00000,1,0,
06.30 14:32:44:161,55346,0.05231,0.20060,9.79524,0.00027,0.00000,-133880376.00000,-0.06201,0.17478,-0.61052,1.15925,23.72159,-0.46752,0.97858,0.01074,-0.00191,0.20556,0.00000,0.00000,0.00000,0.00000,1,0,
06.30 14:32:44:170,55347,0.07650,0.20049,9.80971,0.00027,0.00000,-133880376.00000,-0.06203,0.17471,-0.60704,1.15870,23.72202,-0.46854,0.97858,0.01074,-0.00192,0.20557,0.00000,0.00000,0.00000,0.00000,1,0,
06.30 14:32:44:180,55348,0.07368,0.19923,9.78639,0.00027,0.00000,-133880376.00000,-0.06302,0.17621,-0.60704,1.15890,23.72176,-0.46854,0.97858,0.01074,-0.00192,0.20556,0.00000,0.00000,0.00000,0.00000,1,0,
06.30 14:32:44:191,55349,0.08908,0.20433,9.80651,0.00027,0.00000,-133880376.00000,-0.06153,0.17623,-0.60802,1.15869,23.72181,-0.46750,0.97858,0.01073,-0.00191,0.20556,0.00000,0.00000,0.00000,0.00000,1,0,
06.30 14:32:44:200,55350,0.07802,0.20008,9.80339,0.00027,0.00000,-133880376.00000,-0.06302,0.17572,-0.60754,1.15810,23.72012,-0.46824,0.97859,0.01073,-0.00192,0.20555,0.00000,0.00000,0.00000,0.00000,1,0,
06.30 14:32:44:212,55351,0.07861,0.21618,9.78059,0.00027,0.00000,-133880376.00000,-0.06250,0.17529,-0.61102,1.15934,23.71885,-0.46806,0.97859,0.01074,-0.00192,0.20554,0.00000,0.00000,0.00000,0.00000,1,0,
06.30 14:32:44:222,55352,0.08100,0.18929,9.79862,0.00027,0.00000,-133880376.00000,-0.06103,0.17421,-0.60703,1.15786,23.71922,-0.46781,0.97859,0.01073,-0.00192,0.20554,0.00000,0.00000,0.00000,0.00000,1,0,
06.30 14:32:44:232,55353,0.08904,0.19405,9.81271,0.00027,0.00000,-133880376.00000,-0.06303,0.17717,-0.60505,1.15854,23.71974,-0.46767,0.97859,0.01073,-0.00192,0.20555,0.00000,0.00000,0.00000,0.00000,1,0,
06.30 14:32:44:241,55354,0.07280,0.19186,9.80589,0.00027,0.00000,-133880376.00000,-0.06203,0.17520,-0.60654,1.15766,23.72001,-0.46819,0.97859,0.01073,-0.00192,0.20555,0.00000,0.00000,0.00000,0.00000,1,0,
06.30 14:32:44:250,55355,0.09074,0.22867,9.79461,0.00027,0.00000,-133880376.00000,-0.06053,0.17773,-0.60801,1.15671,23.72080,-0.46899,0.97858,0.01072,-0.00193,0.20556,0.00000,0.00000,0.00000,0.00000,1,0,
06.30 14:32:44:260,55356,0.08156,0.21630,9.79626,0.00027,0.00000,-133880376.00000,-0.06302,0.17122,-0.60756,1.15593,23.72086,-0.46898,0.97858,0.01071,-0.00193,0.20556,0.00000,0.00000,0.00000,0.00000,1,0,
06.30 14:32:44:270,55357,0.07661,0.20417,9.79473,0.00027,0.00000,-133880376.00000,-0.06351,0.17422,-0.60755,1.15649,23.72103,-0.46806,0.97858,0.01072,-0.00192,0.20556,0.00000,0.00000,0.00000,0.00000,1,0,
06.30 14:32:44:280,55358,0.08061,0.17611,9.79225,0.00027,0.00000,-133880376.00000,-0.06202,0.17675,-0.60902,1.15626,23.72019,-0.46766,0.97859,0.01071,-0.00192,0.20555,0.00000,0.00000,0.00000,0.00000,1,0,
06.30 14:32:44:292,55359,0.07440,0.21952,9.77974,0.00027,0.00000,-133880376.00000,-0.06251,0.17775,-0.60902,1.15664,23.71931,-0.46758,0.97859,0.01072,-0.00192,0.20554,0.00000,0.00000,0.00000,0.00000,1,0,
06.30 14:32:44:301,55360,0.06884,0.21152,9.80210,0.00027,0.00000,-133880376.00000,-0.06153,0.17621,-0.60703,1.15835,23.71856,-0.46851,0.97859,0.01073,-0.00192,0.20554,0.00000,0.00000,0.00000,0.00000,1,0,
06.30 14:32:44:312,55361,0.05946,0.20425,9.79936,0.00027,0.00000,-133880376.00000,-0.06054,0.17422,-0.60703,1.15772,23.71881,-0.46934,0.97859,0.01073,-0.00193,0.20554,0.00000,0.00000,0.00000,0.00000,1,0,
06.30 14:32:44:321,55362,0.07719,0.20446,9.79774,0.00027,0.00000,-133880376.00000,-0.06253,0.17568,-0.60554,1.15581,23.71945,-0.46972,0.97859,0.01071,-0.00194,0.20554,0.00000,0.00000,0.00000,0.00000,1,0,
06.30 14:32:44:331,55363,0.06537,0.20635,9.79452,0.00027,0.00000,-133880376.00000,-0.06301,0.17523,-0.60804,1.15552,23.71895,-0.46917,0.97859,0.01071,-0.00193,0.20554,0.00000,0.00000,0.00000,0.00000,1,0,
06.30 14:32:44:341,55364,0.06732,0.20222,9.79581,0.00027,0.00000,-133880376.00000,-0.06300,0.17330,-0.61153,1.15638,23.71863,-0.46865,0.97859,0.01072,-0.00193,0.20554,0.00000,0.00000,0.00000,0.00000,1,0,
06.30 14:32:44:351,55365,0.07264,0.20100,9.79724,0.00027,0.00000,-133880376.00000,-0.05954,0.17475,-0.60851,1.15606,23.71873,-0.46854,0.97859,0.01071,-0.00193,0.20554,0.00000,0.00000,0.00000,0.00000,1,0,
06.30 14:32:44:362,55366,0.08421,0.19808,9.80076,0.00027,0.00000,-133880376.00000,-0.06104,0.17371,-0.60653,1.15668,23.71894,-0.46809,0.97859,0.01072,-0.00192,0.20554,0.00000,0.00000,0.00000,0.00000,1,0,
06.30 14:32:44:373,55367,0.09556,0.18911,9.78837,0.00027,0.00000,-133880376.00000,-0.06500,0.17421,-0.60756,1.15838,23.71881,-0.46730,0.97859,0.01073,-0.00191,0.20554,0.00000,0.00000,0.00000,0.00000,1,0,
06.30 14:32:44:382,55368,0.08714,0.18766,9.80339,0.00027,0.00000,-133880376.00000,-0.06103,0.17675,-0.60901,1.15626,23.72092,-0.46752,0.97858,0.01071,-0.00192,0.20556,0.00000,0.00000,0.00000,0.00000,1,0,
06.30 14:32:44:392,55369,0.07951,0.21662,9.79004,0.00027,0.00000,-133880376.00000,-0.06103,0.17574,-0.60852,1.15507,23.72127,-0.46681,0.97858,0.01070,-0.00191,0.20556,0.00000,0.00000,0.00000,0.00000,1,0,
06.30 14:32:44:400,55370,0.08613,0.20095,9.78873,0.00027,0.00000,-133880376.00000,-0.06103,0.17471,-0.60703,1.15420,23.72085,-0.46719,0.97859,0.01069,-0.00192,0.20556,0.00000,0.00000,0.00000,0.00000,1,0,
06.30 14:32:44:410,55371,0.08606,0.19436,9.79261,0.00027,0.00000,-133880376.00000,-0.06153,0.17623,-0.60802,1.15382,23.72016,-0.46700,0.97859,0.01069,-0.00192,0.20555,0.00000,0.00000,0.00000,0.00000,1,0,
06.30 14:32:44:421,55372,0.07112,0.19998,9.79950,0.00027,0.00000,-133880376.00000,-0.06249,0.17584,-0.61351,1.15223,23.72130,-0.46751,0.97858,0.01068,-0.00193,0.20556,0.00000,0.00000,0.00000,0.00000,1,0,
06.30 14:32:44:430,55373,0.08938,0.19338,9.80389,0.00027,0.00000,-133880376.00000,-0.06203,0.17519,-0.60604,1.15264,23.72156,-0.46651,0.97858,0.01068,-0.00192,0.20556,0.00000,0.00000,0.00000,0.00000,1,0,
06.30 14:32:44:441,55374,0.07495,0.19334,9.78653,0.00027,0.00000,-133880376.00000,-0.06252,0.17523,-0.60803,1.15426,23.72069,-0.46576,0.97859,0.01069,-0.00191,0.20555,0.00000,0.00000,0.00000,0.00000,1,0,
06.30 14:32:44:451,55375,0.07663,0.21184,9.79223,0.00027,0.00000,-133880376.00000,-0.06301,0.17525,-0.60903,1.15474,23.72047,-0.46575,0.97859,0.01070,-0.00191,0.20555,0.00000,0.00000,0.00000,0.00000,1,0,
06.30 14:32:44:461,55376,0.08339,0.20103,9.80997,0.00027,0.00000,-133880376.00000,-0.06301,0.17323,-0.60805,1.15658,23.72064,-0.46585,0.97859,0.01071,-0.00190,0.20555,0.00000,0.00000,0.00000,0.00000,1,0,
06.30 14:32:44:470,55377,0.07822,0.20985,9.78844,0.00027,0.00000,-133880376.00000,-0.06401,0.17622,-0.60804,1.15820,23.71973,-0.46605,0.97859,0.01073,-0.00190,0.20555,0.00000,0.00000,0.00000,0.00000,1,0,
06.30 14:32:44:480,55378,0.07113,0.21829,9.80384,0.00027,0.00000,-133880376.00000,-0.06202,0.17625,-0.60902,1.15779,23.71927,-0.46675,0.97859,0.01072,-0.00191,0.20554,0.00000,0.00000,0.00000,0.00000,1,0,
06.30 14:32:44:491,55379,0.08016,0.18536,9.80399,0.00027,0.00000,-133880376.00000,-0.06101,0.17679,-0.61100,1.15736,23.71911,-0.46687,0.97859,0.01072,-0.00191,0.20554,0.00000,0.00000,0.00000,0.00000,1,0,
06.30 14:32:44:500,55380,0.06692,0.20746,9.79738,0.00027,0.00000,-133880376.00000,-0.06301,0.17773,-0.60853,1.15758,23.71958,-0.46691,0.97859,0.01072,-0.00191,0.20555,0.00000,0.00000,0.00000,0.00000,1,0,
06.30 14:32:44:511,55381,0.07095,0.20444,9.78312,0.00027,0.00000,-133880376.00000,-0.06252,0.17373,-0.60804,1.15685,23.71929,-0.46737,0.97859,0.01072,-0.00192,0.20554,0.00000,0.00000,0.00000,0.00000,1,0,
06.30 14:32:44:521,55382,0.07133,0.22249,9.79643,0.00027,0.00000,-133880376.00000,-0.06401,0.17623,-0.60854,1.15735,23.71994,-0.46825,0.97859,0.01072,-0.00192,0.20555,0.00000,0.00000,0.00000,0.00000,1,0,
06.30 14:32:44:531,55383,0.07122,0.20255,9.80834,0.00027,0.00000,-133880376.00000,-0.06252,0.17621,-0.60704,1.15688,23.72074,-0.46918,0.97858,0.01072,-0.00193,0.20556,0.00000,0.00000,0.00000,0.00000,1,0,
06.30 14:32:44:542,55384,0.07469,0.18705,9.80482,0.00027,0.00000,-133880376.00000,-0.06202,0.17524,-0.60853,1.15609,23.71982,-0.46956,0.97859,0.01072,-0.00194,0.20555,0.00000,0.00000,0.00000,0.00000,1,0,
06.30 14:32:44:551,55385,0.08106,0.21110,9.80384,0.00027,0.00000,-133880376.00000,-0.06201,0.17626,-0.60952,1.15502,23.71995,-0.46999,0.97859,0.01071,-0.00194,0.20555,0.00000,0.00000,0.00000,0.00000,1,0,
06.30 14:32:44:561,55386,0.06072,0.20961,9.79054,0.00027,0.00000,-133880376.00000,-0.06203,0.17572,-0.60753,1.15498,23.71967,-0.46881,0.97859,0.01070,-0.00193,0.20555,0.00000,0.00000,0.00000,0.00000,1,0,
06.30 14:32:44:571,55387,0.07548,0.19850,9.80933,0.00027,0.00000,-133880376.00000,-0.06302,0.17621,-0.60704,1.15501,23.71967,-0.46954,0.97859,0.01071,-0.00194,0.20555,0.00000,0.00000,0.00000,0.00000,1,0,
06.30 14:32:44:581,55388,0.07857,0.20365,9.80763,0.00027,0.00000,-133880376.00000,-0.06103,0.17522,-0.60752,1.15348,23.71983,-0.46924,0.97859,0.01069,-0.00194,0.20555,0.00000,0.00000,0.00000,0.00000,1,0,
06.30 14:32:44:590,55389,0.07567,0.17637,9.80215,0.00027,0.00000,-133880376.00000,-0.06647,0.17529,-0.61155,1.15145,23.72037,-0.46842,0.97859,0.01067,-0.00194,0.20555,0.00000,0.00000,0.00000,0.00000,1,0,
06.30 14:32:44:601,55390,0.06759,0.19628,9.79712,0.00027,0.00000,-133880376.00000,-0.06104,0.17671,-0.60702,1.15206,23.71996,-0.46931,0.97859,0.01068,-0.00194,0.20555,0.00000,0.00000,0.00000,0.00000,1,0,
06.30 14:32:44:611,55391,0.06666,0.19515,9.80799,0.00027,0.00000,-133880376.00000,-0.06500,0.17323,-0.60856,1.15226,23.72027,-0.46972,0.97859,0.01068,-0.00194,0.20555,0.00000,0.00000,0.00000,0.00000,1,0,
06.30 14:32:44:622,55392,0.10017,0.21986,9.80425,0.00027,0.00000,-133880376.00000,-0.06251,0.17678,-0.61052,1.15292,23.72005,-0.47026,0.97859,0.01069,-0.00195,0.20555,0.00000,0.00000,0.00000,0.00000,1,0,
06.30 14:32:44:632,55393,0.06887,0.21254,9.79130,0.00027,0.00000,-133880376.00000,-0.06153,0.17673,-0.60802,1.15349,23.71954,-0.47009,0.97859,0.01069,-0.00195,0.20555,0.00000,0.00000,0.00000,0.00000,1,0,
06.30 14:32:44:641,55394,0.07616,0.19368,9.79275,0.00027,0.00000,-133880376.00000,-0.06399,0.17378,-0.61054,1.15292,23.71918,-0.46975,0.97859,0.01069,-0.00194,0.20554,0.00000,0.00000,0.00000,0.00000,1,0,
06.30 14:32:44:650,55395,0.07080,0.20936,9.78810,0.00027,0.00000,-133880376.00000,-0.06153,0.17471,-0.60703,1.15314,23.71843,-0.47045,0.97859,0.01069,-0.00195,0.20554,0.00000,0.00000,0.00000,0.00000,1,0,
06.30 14:32:44:661,55396,0.07492,0.20282,9.79523,0.00027,0.00000,-133880376.00000,-0.06203,0.17572,-0.60753,1.15415,23.71828,-0.47031,0.97859,0.01070,-0.00195,0.20553,0.00000,0.00000,0.00000,0.00000,1,0,
06.30 14:32:44:671,55397,0.07945,0.21008,9.79609,0.00027,0.00000,-133880376.00000,-0.06252,0.17821,-0.60703,1.15469,23.71801,-0.47059,0.97859,0.01071,-0.00195,0.20553,0.00000,0.00000,0.00000,0.00000,1,0,
06.30 14:32:44:682,55398,0.07596,0.19054,9.80067,0.00027,0.00000,-133880376.00000,-0.05953,0.17578,-0.61000,1.15215,23.71791,-0.47028,0.97859,0.01068,-0.00195,0.20553,0.00000,0.00000,0.00000,0.00000,1,0,
06.30 14:32:44:691,55399,0.06881,0.19683,9.79021,0.00027,0.00000,-133880376.00000,-0.05955,0.17622,-0.60701,1.15083,23.71827,-0.47022,0.97859,0.01067,-0.00195,0.20553,0.00000,0.00000,0.00000,0.00000,1,0,
06.30 14:32:44:701,55400,0.10589,0.19535,9.79862,0.00027,0.00000,-133880376.00000,-0.06301,0.17676,-0.60953,1.15036,23.71769,-0.46958,0.97859,0.01067,-0.00195,0.20553,0.00000,0.00000,0.00000,0.00000,1,0,
06.30 14:32:44:712,55401,0.07279,0.21496,9.78295,0.00027,0.00000,-133880376.00000,-0.06351,0.17624,-0.60854,1.15101,23.71781,-0.46945,0.97859,0.01067,-0.00194,0.20553,0.00000,0.00000,0.00000,0.00000,1,0,
06.30 14:32:44:720,55402,0.09699,0.21771,9.79378,0.00027,0.00000,-133880376.00000,-0.06400,0.17276,-0.60955,1.15139,23.71841,-0.47026,0.97859,0.01068,-0.00195,0.20554,0.00000,0.00000,0.00000,0.00000,1,0,
06.30 14:32:44:730,55403,0.08495,0.20557,9.79135,0.00027,0.00000,-133880376.00000,-0.06252,0.17573,-0.60803,1.15324,23.71817,-0.46999,0.97859,0.01069,-0.00195,0.20553,0.00000,0.00000,0.00000,0.00000,1,0,
06.30 14:32:44:740,55404,0.09731,0.18313,9.79621,0.00027,0.00000,-133880376.00000,-0.06301,0.17373,-0.60804,1.15197,23.71833,-0.47029,0.97859,0.01068,-0.00195,0.20554,0.00000,0.00000,0.00000,0.00000,1,0,
06.30 14:32:44:751,55405,0.07865,0.17890,9.77933,0.00027,0.00000,-133880376.00000,-0.06202,0.17323,-0.60804,1.15149,23.71793,-0.47073,0.97859,0.01068,-0.00196,0.20553,0.00000,0.00000,0.00000,0.00000,1,0,
06.30 14:32:44:761,55406,0.09006,0.18386,9.79178,0.00027,0.00000,-133880376.00000,-0.06252,0.17573,-0.60803,1.15279,23.71790,-0.47157,0.97859,0.01069,-0.00196,0.20553,0.00000,0.00000,0.00000,0.00000,1,0,
06.30 14:32:44:771,55407,0.06914,0.19256,9.79335,0.00027,0.00000,-133880376.00000,-0.06199,0.17685,-0.61400,1.15475,23.71687,-0.47040,0.97859,0.01071,-0.00195,0.20552,0.00000,0.00000,0.00000,0.00000,1,0,
06.30 14:32:44:781,55408,0.08319,0.19521,9.79776,0.00027,0.00000,-133880376.00000,-0.06252,0.17572,-0.60753,1.15483,23.71650,-0.47012,0.97859,0.01071,-0.00194,0.20552,0.00000,0.00000,0.00000,0.00000,1,0,
06.30 14:32:44:791,55409,0.06565,0.19412,9.79552,0.00027,0.00000,-133880376.00000,-0.06248,0.17586,-0.61450,1.15346,23.71606,-0.46946,0.97859,0.01069,-0.00194,0.20552,0.00000,0.00000,0.00000,0.00000,1,0,
06.30 14:32:44:800,55410,0.06553,0.19067,9.79995,0.00027,0.00000,-133880376.00000,-0.06252,0.17624,-0.60853,1.15425,23.71550,-0.46850,0.97859,0.01070,-0.00193,0.20551,0.00000,0.00000,0.00000,0.00000,1,0,
06.30 14:32:44:811,55411,0.09430,0.19979,9.80651,0.00027,0.00000,-133880376.00000,-0.06202,0.17676,-0.60952,1.15345,23.71496,-0.46836,0.97860,0.01069,-0.00193,0.20551,0.00000,0.00000,0.00000,0.00000,1,0,
06.30 14:32:44:820,55412,0.08820,0.21008,9.79731,0.00027,0.00000,-133880376.00000,-0.06500,0.17624,-0.60905,1.15160,23.71359,-0.46860,0.97860,0.01068,-0.00194,0.20549,0.00000,0.00000,0.00000,0.00000,1,0,
06.30 14:32:44:831,55413,0.08333,0.21179,9.80201,0.00027,0.00000,-133880376.00000,-0.06103,0.17523,-0.60802,1.15299,23.71276,-0.46877,0.97860,0.01069,-0.00194,0.20549,0.00000,0.00000,0.00000,0.00000,1,0,
06.30 14:32:44:841,55414,0.06270,0.20295,9.79707,0.00027,0.00000,-133880376.00000,-0.06201,0.17326,-0.60953,1.15376,23.71199,-0.46811,0.97860,0.01069,-0.00193,0.20548,0.00000,0.00000,0.00000,0.00000,1,0,
06.30 14:32:44:852,55415,0.08043,0.19437,9.80325,0.00027,0.00000,-133880376.00000,-0.06152,0.17726,-0.60951,1.15327,23.71190,-0.46889,0.97860,0.01069,-0.00194,0.20548,0.00000,0.00000,0.00000,0.00000,1,0,
06.30 14:32:44:861,55416,0.09332,0.19367,9.78727,0.00027,0.00000,-133880376.00000,-0.06351,0.17523,-0.60804,1.15348,23.71127,-0.46855,0.97860,0.01069,-0.00193,0.20547,0.00000,0.00000,0.00000,0.00000,1,0,
06.30 14:32:44:871,55417,0.06178,0.20280,9.78956,0.00027,0.00000,-133880376.00000,-0.06202,0.17575,-0.60902,1.15340,23.71101,-0.46866,0.97860,0.01069,-0.00193,0.20547,0.00000,0.00000,0.00000,0.00000,1,0,
06.30 14:32:44:880,55418,0.08038,0.21231,9.79108,0.00027,0.00000,-133880376.00000,-0.06102,0.17726,-0.60951,1.15485,23.71061,-0.46846,0.97860,0.01070,-0.00193,0.20547,0.00000,0.00000,0.00000,0.00000,1,0,
06.30 14:32:44:891,55419,0.08833,0.21622,9.79715,0.00027,0.00000,-133880376.00000,-0.06350,0.17629,-0.61102,1.15312,23.71190,-0.46801,0.97860,0.01069,-0.00193,0.20548,0.00000,0.00000,0.00000,0.00000,1,0,
06.30 14:32:44:900,55420,0.07046,0.18077,9.80027,0.00027,0.00000,-133880376.00000,-0.06152,0.17724,-0.60852,1.15417,23.71113,-0.46731,0.97860,0.01069,-0.00192,0.20547,0.00000,0.00000,0.00000,0.00000,1,0,
06.30 14:32:44:911,55421,0.08601,0.19508,9.79113,0.00027,0.00000,-133880376.00000,-0.06302,0.17622,-0.60754,1.15510,23.71033,-0.46793,0.97860,0.01070,-0.00193,0.20547,0.00000,0.00000,0.00000,0.00000,1,0,
06.30 14:32:44:921,55422,0.07255,0.21509,9.78996,0.00027,0.00000,-133880376.00000,-0.06399,0.17478,-0.61054,1.15500,23.70935,-0.46839,0.97861,0.01070,-0.00193,0.20546,0.00000,0.00000,0.00000,0.00000,1,0,
06.30 14:32:44:931,55423,0.07223,0.20757,9.79590,0.00027,0.00000,-133880376.00000,-0.06102,0.17425,-0.60902,1.15479,23.70893,-0.46886,0.97861,0.01070,-0.00193,0.20545,0.00000,0.00000,0.00000,0.00000,1,0,
06.30 14:32:44:941,55424,0.07928,0.21278,9.78963,0.00027,0.00000,-133880376.00000,-0.06152,0.17577,-0.61002,1.15543,23.70902,-0.46795,0.97861,0.01071,-0.00193,0.20546,0.00000,0.00000,0.00000,0.00000,1,0,
06.30 14:32:44:952,55425,0.08018,0.20197,9.80737,0.00027,0.00000,-133880376.00000,-0.06202,0.17726,-0.60952,1.15559,23.70877,-0.46785,0.97861,0.01071,-0.00192,0.20545,0.00000,0.00000,0.00000,0.00000,1,0,
06.30 14:32:44:960,55426,0.09627,0.19473,9.80994,0.00027,0.00000,-133880376.00000,-0.06201,0.17626,-0.60952,1.15569,23.70856,-0.46784,0.97861,0.01071,-0.00192,0.20545,0.00000,0.00000,0.00000,0.00000,1,0,
06.30 14:32:44:971,55427,0.08285,0.19716,9.79302,0.00027,0.00000,-133880376.00000,-0.06202,0.17222,-0.60754,1.15574,23.70757,-0.46918,0.97861,0.01071,-0.00194,0.20544,0.00000,0.00000,0.00000,0.00000,1,0,
06.30 14:32:44:980,55428,0.07533,0.20547,9.79273,0.00027,0.00000,-133880376.00000,-0.06052,0.17677,-0.61000,1.15645,23.70628,-0.46870,0.97861,0.01072,-0.00193,0.20543,0.00000,0.00000,0.00000,0.00000,1,0,
06.30 14:32:44:991,55429,0.09192,0.20247,9.78882,0.00027,0.00000,-133880376.00000,-0.06251,0.17627,-0.61002,1.15683,23.70773,-0.46855,0.97861,0.01072,-0.00193,0.20544,0.00000,0.00000,0.00000,0.00000,1,0,
06.30 14:32:45:001,55430,0.08269,0.20006,9.78419,0.00027,0.00000,-133880376.00000,-0.06249,0.17635,-0.61400,1.15665,23.70746,-0.46906,0.97861,0.01072,-0.00193,0.20544,0.00000,0.00000,0.00000,0.00000,1,0,
06.30 14:32:45:011,55431,0.08844,0.18548,9.78679,0.00027,0.00000,-133880376.00000,-0.06298,0.17736,-0.61450,1.15704,23.70726,-0.46915,0.97861,0.01072,-0.00193,0.20544,0.00000,0.00000,0.00000,0.00000,1,0,
06.30 14:32:45:022,55432,0.09483,0.20364,9.80701,0.00027,0.00000,-133880376.00000,-0.06202,0.17425,-0.60903,1.15789,23.70666,-0.46941,0.97861,0.01073,-0.00193,0.20544,0.00000,0.00000,0.00000,0.00000,1,0,
06.30 14:32:45:031,55433,0.07594,0.19817,9.79080,0.00027,0.00000,-133880376.00000,-0.06351,0.17624,-0.60854,1.15731,23.70637,-0.46887,0.97861,0.01072,-0.00193,0.20543,0.00000,0.00000,0.00000,0.00000,1,0,
06.30 14:32:45:042,55434,0.07161,0.21153,9.79829,0.00027,0.00000,-133880376.00000,-0.06251,0.17727,-0.61002,1.15746,23.70657,-0.46942,0.97861,0.01073,-0.00193,0.20543,0.00000,0.00000,0.00000,0.00000,1,0,
06.30 14:32:45:050,55435,0.08299,0.19806,9.79347,0.00027,0.00000,-133880376.00000,-0.06151,0.17579,-0.61101,1.15722,23.70719,-0.47011,0.97861,0.01073,-0.00194,0.20544,0.00000,0.00000,0.00000,0.00000,1,0,
06.30 14:32:45:060,55436,0.08074,0.20222,9.79817,0.00027,0.00000,-133880376.00000,-0.06052,0.17628,-0.61050,1.15622,23.70707,-0.47052,0.97861,0.01072,-0.00195,0.20544,0.00000,0.00000,0.00000,0.00000,1,0,
06.30 14:32:45:071,55437,0.09994,0.20188,9.80355,0.00027,0.00000,-133880376.00000,-0.06152,0.17474,-0.60853,1.15790,23.70802,-0.47105,0.97861,0.01073,-0.00195,0.20545,0.00000,0.00000,0.00000,0.00000,1,0,
06.30 14:32:45:081,55438,0.06882,0.20025,9.79116,0.00027,0.00000,-133880376.00000,-0.05954,0.17626,-0.60900,1.15962,23.70721,-0.47026,0.97861,0.01075,-0.00194,0.20544,0.00000,0.00000,0.00000,0.00000,1,0,
06.30 14:32:45:092,55439,0.07962,0.20460,9.79237,0.00027,0.00000,-133880376.00000,-0.06450,0.17323,-0.60806,1.16048,23.70822,-0.47091,0.97861,0.01075,-0.00194,0.20545,0.00000,0.00000,0.00000,0.00000,1,0,
06.30 14:32:45:102,55440,0.07899,0.20071,9.79455,0.00027,0.00000,-133880376.00000,-0.06202,0.17773,-0.60802,1.15869,23.70932,-0.47106,0.97861,0.01074,-0.00195,0.20546,0.00000,0.00000,0.00000,0.00000,1,0,
06.30 14:32:45:112,55441,0.07892,0.20518,9.79857,0.00027,0.00000,-133880376.00000,-0.06351,0.17525,-0.60904,1.15935,23.70824,-0.47175,0.97861,0.01075,-0.00195,0.20545,0.00000,0.00000,0.00000,0.00000,1,0,
06.30 14:32:45:121,55442,0.08012,0.18915,9.78281,0.00027,0.00000,-133880376.00000,-0.06350,0.17477,-0.61003,1.16076,23.70783,-0.47178,0.97861,0.01076,-0.00195,0.20545,0.00000,0.00000,0.00000,0.00000,1,0,
06.30 14:32:45:131,55443,0.06901,0.21894,9.80885,0.00027,0.00000,-133880376.00000,-0.06004,0.17524,-0.60801,1.15997,23.70818,-0.47007,0.97861,0.01075,-0.00194,0.20545,0.00000,0.00000,0.00000,0.00000,1,0,
06.30 14:32:45:141,55444,0.07153,0.19038,9.80053,0.00027,0.00000,-133880376.00000,-0.06202,0.17374,-0.60853,1.15956,23.70765,-0.47022,0.97861,0.01075,-0.00194,0.20544,0.00000,0.00000,0.00000,0.00000,1,0,
06.30 14:32:45:151,55445,0.08935,0.18359,9.78031,0.00027,0.00000,-133880376.00000,-0.06153,0.17573,-0.60802,1.16006,23.70786,-0.46986,0.97861,0.01075,-0.00193,0.20545,0.00000,0.00000,0.00000,0.00000,1,0,
06.30 14:32:45:161,55446,0.08602,0.18071,9.81111,0.00027,0.00000,-133880376.00000,-0.06302,0.17622,-0.60754,1.15935,23.70811,-0.46890,0.97861,0.01074,-0.00193,0.20545,0.00000,0.00000,0.00000,0.00000,1,0,
06.30 14:32:45:171,55447,0.08025,0.21988,9.76889,0.00027,0.00000,-133880376.00000,-0.06301,0.17626,-0.60953,1.16081,23.70809,-0.46799,0.97861,0.01075,-0.00192,0.20545,0.00000,0.00000,0.00000,0.00000,1,0,
06.30 14:32:45:181,55448,0.05807,0.22396,9.80291,0.00027,0.00000,-133880376.00000,-0.06153,0.17473,-0.60803,1.15957,23.70847,-0.46752,0.97861,0.01074,-0.00191,0.20545,0.00000,0.00000,0.00000,0.00000,1,0,
06.30 14:32:45:192,55449,0.08724,0.18785,9.81226,0.00027,0.00000,-133880376.00000,-0.06102,0.17525,-0.60902,1.15744,23.70901,-0.46846,0.97861,0.01072,-0.00193,0.20546,0.00000,0.00000,0.00000,0.00000,1,0,
06.30 14:32:45:200,55450,0.07872,0.21222,9.80325,0.00027,0.00000,-133880376.00000,-0.06201,0.17327,-0.61003,1.15591,23.70880,-0.46867,0.97861,0.01071,-0.00193,0.20545,0.00000,0.00000,0.00000,0.00000,1,0,
06.30 14:32:45:210,55451,0.10555,0.21323,9.78841,0.00027,0.00000,-133880376.00000,-0.06200,0.17630,-0.61151,1.15802,23.70802,-0.46878,0.97861,0.01073,-0.00193,0.20545,0.00000,0.00000,0.00000,0.00000,1,0,
06.30 14:32:45:221,55452,0.08542,0.18190,9.77397,0.00027,0.00000,-133880376.00000,-0.06051,0.17633,-0.61299,1.15840,23.70756,-0.46913,0.97861,0.01073,-0.00193,0.20544,0.00000,0.00000,0.00000,0.00000,1,0,
06.30 14:32:45:232,55453,0.07171,0.19937,9.81314,0.00027,0.00000,-133880376.00000,-0.06152,0.17574,-0.60852,1.15715,23.70761,-0.46908,0.97861,0.01072,-0.00193,0.20544,0.00000,0.00000,0.00000,0.00000,1,0,
06.30 14:32:45:241,55454,0.06864,0.21472,9.79025,0.00027,0.00000,-133880376.00000,-0.06199,0.17584,-0.61350,1.15757,23.70855,-0.46832,0.97861,0.01073,-0.00192,0.20545,0.00000,0.00000,0.00000,0.00000,1,0,
06.30 14:32:45:251,55455,0.09562,0.20070,9.80532,0.00027,0.00000,-133880376.00000,-0.06202,0.17575,-0.60902,1.15766,23.70857,-0.46710,0.97861,0.01072,-0.00191,0.20545,0.00000,0.00000,0.00000,0.00000,1,0,
06.30 14:32:45:261,55456,0.07963,0.18482,9.79697,0.00027,0.00000,-133880376.00000,-0.06351,0.17423,-0.60805,1.15812,23.70839,-0.46664,0.97861,0.01073,-0.00191,0.20545,0.00000,0.00000,0.00000,0.00000,1,0,
06.30 14:32:45:271,55457,0.09461,0.19302,9.80036,0.00027,0.00000,-133880376.00000,-0.06251,0.17576,-0.60953,1.15996,23.70733,-0.46669,0.97861,0.01074,-0.00191,0.20544,0.00000,0.00000,0.00000,0.00000,1,0,
06.30 14:32:45:280,55458,0.08692,0.22711,9.80019,0.00027,0.00000,-133880376.00000,-0.06447,0.17734,-0.61402,1.16029,23.70733,-0.46619,0.97861,0.01074,-0.00190,0.20544,0.00000,0.00000,0.00000,0.00000,1,0,
06.30 14:32:45:289,55459,0.09361,0.21888,9.78841,0.00027,0.00000,-133880376.00000,-0.06104,0.17420,-0.60653,1.15935,23.70781,-0.46799,0.97861,0.01074,-0.00192,0.20545,0.00000,0.00000,0.00000,0.00000,1,0,
06.30 14:32:45:301,55460,0.09135,0.18218,9.78877,0.00027,0.00000,-133880376.00000,-0.06248,0.17888,-0.61549,1.15828,23.70747,-0.46841,0.97861,0.01073,-0.00192,0.20544,0.00000,0.00000,0.00000,0.00000,1,0,
06.30 14:32:45:311,55461,0.08617,0.18142,9.80031,0.00027,0.00000,-133880376.00000,-0.06450,0.17673,-0.60854,1.15725,23.70725,-0.46792,0.97861,0.01072,-0.00192,0.20544,0.00000,0.00000,0.00000,0.00000,1,0,
06.30 14:32:45:322,55462,0.07752,0.20066,9.79228,0.00027,0.00000,-133880376.00000,-0.06549,0.17373,-0.60856,1.15631,23.70670,-0.46826,0.97861,0.01071,-0.00193,0.20544,0.00000,0.00000,0.00000,0.00000,1,0,
06.30 14:32:45:331,55463,0.09308,0.19121,9.78956,0.00027,0.00000,-133880376.00000,-0.06201,0.17678,-0.61051,1.15578,23.70629,-0.46887,0.97861,0.01071,-0.00193,0.20543,0.00000,0.00000,0.00000,0.00000,1,0,
06.30 14:32:45:341,55464,0.05723,0.18910,9.80077,0.00027,0.00000,-133880376.00000,-0.06351,0.17324,-0.60855,1.15579,23.70581,-0.46829,0.97861,0.01071,-0.00193,0.20543,0.00000,0.00000,0.00000,0.00000,1,0,
06.30 14:32:45:351,55465,0.07264,0.20435,9.80918,0.00027,0.00000,-133880376.00000,-0.05952,0.17581,-0.61149,1.15334,23.71780,-0.46916,0.97859,0.01069,-0.00194,0.20553,0.00000,0.00000,0.00000,0.00000,1,0,
06.30 14:32:45:360,55466,0.07314,0.21973,9.80296,0.00027,0.00000,-133880376.00000,-0.06252,0.17371,-0.60704,1.15365,23.71883,-0.46758,0.97859,0.01069,-0.00192,0.20554,0.00000,0.00000,0.00000,0.00000,1,0,
06.30 14:32:45:370,55467,0.04678,0.23030,9.79907,0.00027,0.00000,-133880376.00000,-0.06649,0.17623,-0.60856,1.15397,23.71920,-0.46781,0.97859,0.01069,-0.00193,0.20554,0.00000,0.00000,0.00000,0.00000,1,0,
06.30 14:32:45:381,55468,0.07557,0.21488,9.79311,0.00027,0.00000,-133880376.00000,-0.06252,0.17773,-0.60803,1.15494,23.71865,-0.46808,0.97859,0.01070,-0.00193,0.20554,0.00000,0.00000,0.00000,0.00000,1,0,
06.30 14:32:45:391,55469,0.05818,0.18568,9.80949,0.00027,0.00000,-133880376.00000,-0.06549,0.17323,-0.60856,1.15513,23.71845,-0.46844,0.97859,0.01071,-0.00193,0.20554,0.00000,0.00000,0.00000,0.00000,1,0,
06.30 14:32:45:401,55470,0.09501,0.19042,9.79309,0.00027,0.00000,-133880376.00000,-0.06303,0.17816,-0.60504,1.15432,23.71747,-0.46964,0.97859,0.01070,-0.00194,0.20553,0.00000,0.00000,0.00000,0.00000,1,0,
06.30 14:32:45:412,55471,0.06947,0.19431,9.78670,0.00027,0.00000,-133880376.00000,-0.06202,0.17523,-0.60803,1.15548,23.71680,-0.46871,0.97859,0.01071,-0.00193,0.20552,0.00000,0.00000,0.00000,0.00000,1,0,
06.30 14:32:45:421,55472,0.06954,0.20528,9.79361,0.00027,0.00000,-133880376.00000,-0.06203,0.17572,-0.60753,1.15708,23.71646,-0.46751,0.97859,0.01072,-0.00192,0.20552,0.00000,0.00000,0.00000,0.00000,1,0,
06.30 14:32:45:432,55473,0.07414,0.20296,9.78608,0.00027,0.00000,-133880376.00000,-0.06152,0.17824,-0.60851,1.15740,23.71451,-0.46688,0.97860,0.01072,-0.00191,0.20550,0.00000,0.00000,0.00000,0.00000,1,0,
06.30 14:32:45:441,55474,0.07945,0.20687,9.78372,0.00027,0.00000,-133880376.00000,-0.06301,0.17273,-0.60805,1.15873,23.71438,-0.46709,0.97860,0.01073,-0.00191,0.20550,0.00000,0.00000,0.00000,0.00000,1,0,
06.30 14:32:45:450,55475,0.07449,0.20648,9.79812,0.00027,0.00000,-133880376.00000,-0.06103,0.17724,-0.60851,1.15875,23.71442,-0.46759,0.97860,0.01073,-0.00192,0.20550,0.00000,0.00000,0.00000,0.00000,1,0,
06.30 14:32:45:461,55476,0.05571,0.19903,9.79214,0.00027,0.00000,-133880376.00000,-0.06302,0.17372,-0.60755,1.15594,23.71560,-0.46818,0.97859,0.01071,-0.00193,0.20551,0.00000,0.00000,0.00000,0.00000,1,0,
06.30 14:32:45:471,55477,0.07900,0.20712,9.80041,0.00027,0.00000,-133880376.00000,-0.06403,0.17565,-0.60456,1.15460,23.71619,-0.46864,0.97859,0.01070,-0.00193,0.20552,0.00000,0.00000,0.00000,0.00000,1,0,
06.30 14:32:45:481,55478,0.08385,0.17720,9.80618,0.00027,0.00000,-133880376.00000,-0.06103,0.17623,-0.60802,1.15563,23.71660,-0.47014,0.97859,0.01071,-0.00194,0.20552,0.00000,0.00000,0.00000,0.00000,1,0,
06.30 14:32:45:491,55479,0.06332,0.18680,9.81574,0.00027,0.00000,-133880376.00000,-0.06501,0.17468,-0.60607,1.15642,23.71610,-0.46947,0.97859,0.01072,-0.00194,0.20552,0.00000,0.00000,0.00000,0.00000,1,0,
06.30 14:32:45:501,55480,0.06576,0.22109,9.79604,0.00027,0.00000,-133880376.00000,-0.06203,0.17672,-0.60753,1.15706,23.71577,-0.46835,0.97859,0.01072,-0.00192,0.20551,0.00000,0.00000,0.00000,0.00000,1,0,
06.30 14:32:45:511,55481,0.08470,0.21046,9.78205,0.00027,0.00000,-133880376.00000,-0.06151,0.17578,-0.61051,1.15652,23.71657,-0.46855,0.97859,0.01072,-0.00193,0.20552,0.00000,0.00000,0.00000,0.00000,1,0,
06.30 14:32:45:521,55482,0.08175,0.20534,9.80191,0.00027,0.00000,-133880376.00000,-0.06199,0.17534,-0.61350,1.15620,23.71626,-0.46837,0.97859,0.01071,-0.00193,0.20552,0.00000,0.00000,0.00000,0.00000,1,0,
06.30 14:32:45:532,55483,0.08520,0.20822,9.78584,0.00027,0.00000,-133880376.00000,-0.06054,0.17669,-0.60602,1.15642,23.71680,-0.46930,0.97859,0.01072,-0.00193,0.20552,0.00000,0.00000,0.00000,0.00000,1,0,
06.30 14:32:45:541,55484,0.07654,0.19942,9.80816,0.00027,0.00000,-133880376.00000,-0.06302,0.17720,-0.60654,1.15650,23.71729,-0.46971,0.97859,0.01072,-0.00194,0.20553,0.00000,0.00000,0.00000,0.00000,1,0,
06.30 14:32:45:551,55485,0.06927,0.21231,9.78369,0.00027,0.00000,-133880376.00000,-0.06051,0.17484,-0.61300,1.15644,23.71530,-0.46905,0.97859,0.01072,-0.00193,0.20551,0.00000,0.00000,0.00000,0.00000,1,0,
06.30 14:32:45:561,55486,0.06328,0.19497,9.79354,0.00027,0.00000,-133880376.00000,-0.06203,0.17371,-0.60704,1.15521,23.71601,-0.46989,0.97859,0.01071,-0.00194,0.20552,0.00000,0.00000,0.00000,0.00000,1,0,
06.30 14:32:45:570,55487,0.08304,0.20877,9.78465,0.00027,0.00000,-133880376.00000,-0.06302,0.17472,-0.60754,1.15553,23.71603,-0.47042,0.97859,0.01071,-0.00195,0.20552,0.00000,0.00000,0.00000,0.00000,1,0,
06.30 14:32:45:581,55488,0.08967,0.18550,9.78193,0.00027,0.00000,-133880376.00000,-0.06449,0.17626,-0.61004,1.15617,23.71616,-0.47132,0.97859,0.01072,-0.00195,0.20552,0.00000,0.00000,0.00000,0.00000,1,0,
06.30 14:32:45:591,55489,0.07228,0.19760,9.79478,0.00027,0.00000,-133880376.00000,-0.06401,0.17422,-0.60755,1.15712,23.71658,-0.47147,0.97859,0.01073,-0.00195,0.20552,0.00000,0.00000,0.00000,0.00000,1,0,
06.30 14:32:45:600,55490,0.08986,0.20575,9.77900,0.00027,0.00000,-133880376.00000,-0.06001,0.17636,-0.61398,1.15669,23.71565,-0.47211,0.97859,0.01072,-0.00196,0.20551,0.00000,0.00000,0.00000,0.00000,1,0,
06.30 14:32:45:611,55491,0.09172,0.20343,9.81791,0.00027,0.00000,-133880376.00000,-0.06201,0.17579,-0.61101,1.15544,23.71565,-0.47227,0.97859,0.01071,-0.00196,0.20551,0.00000,0.00000,0.00000,0.00000,1,0,
06.30 14:32:45:621,55492,0.08766,0.19293,9.78138,0.00027,0.00000,-133880376.00000,-0.06351,0.17474,-0.60854,1.15589,23.71606,-0.47177,0.97859,0.01072,-0.00196,0.20552,0.00000,0.00000,0.00000,0.00000,1,0,
06.30 14:32:45:631,55493,0.07627,0.20373,9.80229,0.00027,0.00000,-133880376.00000,-0.06298,0.17686,-0.61450,1.15659,23.71658,-0.47289,0.97859,0.01073,-0.00196,0.20552,0.00000,0.00000,0.00000,0.00000,1,0,
06.30 14:32:45:641,55494,0.07835,0.19407,9.78524,0.00027,0.00000,-133880376.00000,-0.06350,0.17477,-0.61003,1.15642,23.71664,-0.47413,0.97859,0.01073,-0.00198,0.20552,0.00000,0.00000,0.00000,0.00000,1,0,
06.30 14:32:45:651,55495,0.07243,0.19725,9.80153,0.00027,0.00000,-133880376.00000,-0.06153,0.17770,-0.60652,1.15686,23.71652,-0.47414,0.97859,0.01073,-0.00197,0.20552,0.00000,0.00000,0.00000,0.00000,1,0,
06.30 14:32:45:661,55496,0.08355,0.19511,9.81273,0.00027,0.00000,-133880376.00000,-0.06201,0.17528,-0.61052,1.15541,23.71663,-0.47509,0.97859,0.01072,-0.00199,0.20552,0.00000,0.00000,0.00000,0.00000,1,0,
06.30 14:32:45:671,55497,0.09437,0.20269,9.78598,0.00027,0.00000,-133880376.00000,-0.06102,0.17525,-0.60902,1.15500,23.71775,-0.47583,0.97859,0.01072,-0.00199,0.20553,0.00000,0.00000,0.00000,0.00000,1,0,
06.30 14:32:45:680,55498,0.08750,0.20976,9.77990,0.00027,0.00000,-133880376.00000,-0.06203,0.17572,-0.60753,1.15615,23.71817,-0.47498,0.97859,0.01073,-0.00198,0.20553,0.00000,0.00000,0.00000,0.00000,1,0,
06.30 14:32:45:691,55499,0.07485,0.21472,9.80546,0.00027,0.00000,-133880376.00000,-0.06500,0.17471,-0.60756,1.15598,23.71791,-0.47499,0.97859,0.01072,-0.00198,0.20553,0.00000,0.00000,0.00000,0.00000,1,0,
06.30 14:32:45:702,55500,0.06604,0.18603,9.80916,0.00027,0.00000,-133880376.00000,-0.06152,0.17775,-0.60901,1.15561,23.71805,-0.47520,0.97859,0.01072,-0.00199,0.20553,0.00000,0.00000,0.00000,0.00000,1,0,
06.30 14:32:45:711,55501,0.07672,0.20674,9.81142,0.00027,0.00000,-133880376.00000,-0.06103,0.17624,-0.60852,1.15561,23.71746,-0.47502,0.97859,0.01072,-0.00198,0.20553,0.00000,0.00000,0.00000,0.00000,1,0,
06.30 14:32:45:721,55502,0.08684,0.21326,9.80141,0.00027,0.00000,-133880376.00000,-0.06153,0.17420,-0.60654,1.15525,23.71718,-0.47484,0.97859,0.01072,-0.00198,0.20553,0.00000,0.00000,0.00000,0.00000,1,0,
06.30 14:32:45:731,55503,0.09757,0.17997,9.79843,0.00027,0.00000,-133880376.00000,-0.06103,0.17622,-0.60752,1.15436,23.71771,-0.47494,0.97859,0.01071,-0.00199,0.20553,0.00000,0.00000,0.00000,0.00000,1,0,
06.30 14:32:45:742,55504,0.08278,0.21577,9.78856,0.00027,0.00000,-133880376.00000,-0.06252,0.17473,-0.60804,1.15366,23.71822,-0.47482,0.97859,0.01070,-0.00199,0.20553,0.00000,0.00000,0.00000,0.00000,1,0,
06.30 14:32:45:751,55505,0.05505,0.20128,9.77439,0.00027,0.00000,-133880376.00000,-0.06252,0.17573,-0.60803,1.15385,23.71847,-0.47366,0.97859,0.01070,-0.00198,0.20554,0.00000,0.00000,0.00000,0.00000,1,0,
06.30 14:32:45:760,55506,0.06583,0.22402,9.78270,0.00027,0.00000,-133880376.00000,-0.06203,0.17672,-0.60753,1.15269,23.71940,-0.47327,0.97859,0.01069,-0.00197,0.20554,0.00000,0.00000,0.00000,0.00000,1,0,
06.30 14:32:45:771,55507,0.07725,0.21374,9.79678,0.00027,0.00000,-133880376.00000,-0.06301,0.17726,-0.60952,1.15226,23.71908,-0.47298,0.97859,0.01069,-0.00197,0.20554,0.00000,0.00000,0.00000,0.00000,1,0,
06.30 14:32:45:781,55508,0.09039,0.21389,9.80725,0.00027,0.00000,-133880376.00000,-0.06152,0.17527,-0.61002,1.15230,23.71940,-0.47321,0.97859,0.01069,-0.00197,0.20554,0.00000,0.00000,0.00000,0.00000,1,0,
06.30 14:32:45:791,55509,0.07870,0.20062,9.79116,0.00027,0.00000,-133880376.00000,-0.06400,0.17427,-0.61004,1.15208,23.71974,-0.47244,0.97859,0.01069,-0.00197,0.20555,0.00000,0.00000,0.00000,0.00000,1,0,
06.30 14:32:45:800,55510,0.08371,0.21691,9.78398,0.00027,0.00000,-133880376.00000,-0.06351,0.17622,-0.60754,1.15188,23.71987,-0.47248,0.97859,0.01068,-0.00197,0.20555,0.00000,0.00000,0.00000,0.00000,1,0,
06.30 14:32:45:811,55511,0.10657,0.19879,9.79731,0.00027,0.00000,-133880376.00000,-0.06402,0.17619,-0.60655,1.15289,23.71957,-0.47239,0.97859,0.01069,-0.00197,0.20555,0.00000,0.00000,0.00000,0.00000,1,0,
06.30 14:32:45:821,55512,0.06671,0.22005,9.79483,0.00027,0.00000,-133880376.00000,-0.06153,0.17670,-0.60653,1.15216,23.71872,-0.47282,0.97859,0.01069,-0.00197,0.20554,0.00000,0.00000,0.00000,0.00000,1,0,
06.30 14:32:45:831,55513,0.05778,0.20997,9.79421,0.00027,0.00000,-133880376.00000,-0.06401,0.17522,-0.60805,1.14956,23.71909,-0.47257,0.97859,0.01066,-0.00197,0.20554,0.00000,0.00000,0.00000,0.00000,1,0,
06.30 14:32:45:840,55514,0.08357,0.19074,9.79616,0.00027,0.00000,-133880376.00000,-0.06400,0.17476,-0.60954,1.15036,23.71868,-0.47298,0.97859,0.01067,-0.00198,0.20554,0.00000,0.00000,0.00000,0.00000,1,0,
06.30 14:32:45:851,55515,0.08056,0.20562,9.79752,0.00027,0.00000,-133880376.00000,-0.06251,0.17678,-0.61052,1.15092,23.71789,-0.47257,0.97859,0.01068,-0.00197,0.20553,0.00000,0.00000,0.00000,0.00000,1,0,
06.30 14:32:45:861,55516,0.05954,0.19502,9.78529,0.00027,0.00000,-133880376.00000,-0.06351,0.17473,-0.60804,1.14877,23.71762,-0.47189,0.97859,0.01066,-0.00197,0.20553,0.00000,0.00000,0.00000,0.00000,1,0,
06.30 14:32:45:872,55517,0.08831,0.22093,9.80670,0.00027,0.00000,-133880376.00000,-0.06351,0.17572,-0.60754,1.14942,23.71663,-0.47165,0.97859,0.01066,-0.00197,0.20552,0.00000,0.00000,0.00000,0.00000,1,0,
06.30 14:32:45:881,55518,0.08884,0.20884,9.78634,0.00027,0.00000,-133880376.00000,-0.06352,0.17521,-0.60705,1.14959,23.71639,-0.47257,0.97859,0.01067,-0.00197,0.20552,0.00000,0.00000,0.00000,0.00000,1,0,
06.30 14:32:45:891,55519,0.07789,0.19595,9.81516,0.00027,0.00000,-133880376.00000,-0.06351,0.17323,-0.60805,1.15044,23.71590,-0.47197,0.97859,0.01067,-0.00197,0.20551,0.00000,0.00000,0.00000,0.00000,1,0,
06.30 14:32:45:902,55520,0.07149,0.20086,9.79676,0.00027,0.00000,-133880376.00000,-0.06153,0.17422,-0.60753,1.15101,23.71675,-0.47217,0.97859,0.01068,-0.00197,0.20552,0.00000,0.00000,0.00000,0.00000,1,0,
06.30 14:32:45:911,55521,0.09618,0.21015,9.80138,0.00027,0.00000,-133880376.00000,-0.06053,0.17426,-0.60902,1.15357,23.71624,-0.47251,0.97859,0.01070,-0.00197,0.20552,0.00000,0.00000,0.00000,0.00000,1,0,
06.30 14:32:45:921,55522,0.08034,0.20523,9.79776,0.00027,0.00000,-133880376.00000,-0.06252,0.17673,-0.60803,1.15401,23.71608,-0.47308,0.97859,0.01070,-0.00197,0.20552,0.00000,0.00000,0.00000,0.00000,1,0,
06.30 14:32:45:931,55523,0.08377,0.20241,9.79006,0.00027,0.00000,-133880376.00000,-0.06102,0.17329,-0.61052,1.15321,23.71716,-0.47262,0.97859,0.01070,-0.00197,0.20553,0.00000,0.00000,0.00000,0.00000,1,0,
06.30 14:32:45:942,55524,0.07587,0.19390,9.80165,0.00027,0.00000,-133880376.00000,-0.06499,0.17175,-0.60906,1.15409,23.71612,-0.47296,0.97859,0.01070,-0.00197,0.20552,0.00000,0.00000,0.00000,0.00000,1,0,
06.30 14:32:45:951,55525,0.07438,0.19037,9.77831,0.00027,0.00000,-133880376.00000,-0.06053,0.17624,-0.60851,1.15512,23.71588,-0.47302,0.97859,0.01071,-0.00197,0.20551,0.00000,0.00000,0.00000,0.00000,1,0,
06.30 14:32:45:961,55526,0.07590,0.19620,9.80656,0.00027,0.00000,-133880376.00000,-0.06350,0.17275,-0.60905,1.15562,23.71563,-0.47317,0.97859,0.01072,-0.00197,0.20551,0.00000,0.00000,0.00000,0.00000,1,0,
06.30 14:32:45:972,55527,0.09472,0.21277,9.79061,0.00027,0.00000,-133880376.00000,-0.06401,0.17622,-0.60804,1.15593,23.71597,-0.47355,0.97859,0.01072,-0.00197,0.20552,0.00000,0.00000,0.00000,0.00000,1,0,
06.30 14:32:45:981,55528,0.08527,0.19750,9.80520,0.00027,0.00000,-133880376.00000,-0.06201,0.17478,-0.61052,1.15666,23.71731,-0.47352,0.97859,0.01073,-0.00197,0.20553,0.00000,0.00000,0.00000,0.00000,1,0,
06.30 14:32:45:991,55529,0.06743,0.20803,9.80515,0.00027,0.00000,-133880376.00000,-0.06351,0.17523,-0.60804,1.15756,23.71731,-0.47342,0.97859,0.01073,-0.00197,0.20553,0.00000,0.00000,0.00000,0.00000,1,0,
06.30 14:32:46:002,55530,0.07612,0.20874,9.78420,0.00027,0.00000,-133880376.00000,-0.06102,0.17476,-0.60952,1.15910,23.71758,-0.47338,0.97859,0.01075,-0.00196,0.20553,0.00000,0.00000,0.00000,0.00000,1,0,
