Time,Counter,ax,ay,az,gx,gy,gz,mx,my,mz,roll,yaw,pitch,q0,q1,q2,q3,debug0,debug1,debug2,debug3,Rest,Mag Disturbance,
07.02 17:06:14:782,262,-0.06073,-0.15964,9.83091,-0.00000,0.00000,-24685744208244365821214720.00000,0.29218,-0.06230,-0.56573,-0.96686,100.58170,0.30954,0.63885,-0.00747,-0.00477,0.76928,0.00000,0.00000,0.00000,0.00000,1,0,
07.02 17:06:14:791,263,-0.02958,-0.18352,9.77676,-0.00000,0.00000,-24685744208244365821214720.00000,0.29317,-0.06382,-0.56423,-0.96597,100.58153,0.30940,0.63885,-0.00746,-0.00476,0.76928,0.00000,0.00000,0.00000,0.00000,1,0,
07.02 17:06:14:801,264,-0.05226,-0.16078,9.86076,-0.00000,0.00000,-24685744208244365821214720.00000,0.29317,-0.06582,-0.56424,-0.96395,100.57301,0.30932,0.63891,-0.00745,-0.00475,0.76923,0.00000,0.00000,0.00000,0.00000,1,0,
07.02 17:06:14:811,265,-0.05544,-0.15544,9.76892,-0.00000,0.00000,-24685744208244365821214720.00000,0.29219,-0.06627,-0.56674,-0.96447,100.55071,0.30970,0.63906,-0.00746,-0.00475,0.76911,0.00000,0.00000,0.00000,0.00000,1,0,
07.02 17:06:14:821,266,-0.06560,-0.17873,9.88858,-0.00000,0.00000,-24685744208244365821214720.00000,0.29516,-0.06427,-0.56670,-0.96403,100.57554,0.30993,0.63889,-0.00746,-0.00474,0.76925,0.00000,0.00000,0.00000,0.00000,1,0,
07.02 17:06:14:830,267,-0.04150,-0.15387,9.77874,-0.00000,0.00000,-24685744208244365821214720.00000,0.29466,-0.06531,-0.56472,-0.96452,100.57707,0.30893,0.63888,-0.00745,-0.00475,0.76926,0.00000,0.00000,0.00000,0.00000,1,0,
07.02 17:06:14:842,268,-0.07410,-0.17641,9.85653,-0.00000,0.00000,-24685744208244365821214720.00000,0.29466,-0.06380,-0.56521,-0.96483,100.59827,0.30858,0.63874,-0.00745,-0.00476,0.76937,0.00000,0.00000,0.00000,0.00000,1,0,
07.02 17:06:14:851,269,-0.05128,-0.16630,9.80034,-0.00000,0.00000,-24685744208244365821214720.00000,0.29317,-0.06430,-0.56523,-0.96536,100.59803,0.30822,0.63874,-0.00745,-0.00476,0.76937,0.00000,0.00000,0.00000,0.00000,1,0,
07.02 17:06:14:862,270,-0.06378,-0.19366,9.84011,-0.00000,0.00000,-24685744208244365821214720.00000,0.29366,-0.06432,-0.56423,-0.96628,100.59673,0.30803,0.63875,-0.00745,-0.00477,0.76937,0.00000,0.00000,0.00000,0.00000,1,0,
07.02 17:06:14:872,271,-0.04971,-0.16774,9.80411,-0.00000,0.00000,-24685744208244365821214720.00000,0.29713,-0.06482,-0.56370,-0.96719,100.59013,0.30858,0.63879,-0.00746,-0.00477,0.76933,0.00000,0.00000,0.00000,0.00000,1,0,
07.02 17:06:14:882,272,-0.05299,-0.16748,9.82983,-0.00000,0.00000,-24685744208244365821214720.00000,0.29467,-0.06578,-0.56622,-0.96754,100.63227,0.30934,0.63851,-0.00747,-0.00477,0.76956,0.00000,0.00000,0.00000,0.00000,1,0,
07.02 17:06:14:892,273,-0.06657,-0.16967,9.81813,-0.00000,0.00000,-24685744208244365821214720.00000,0.29466,-0.06581,-0.56472,-0.96726,100.63137,0.30939,0.63851,-0.00747,-0.00477,0.76956,0.00000,0.00000,0.00000,0.00000,1,0,
07.02 17:06:14:901,274,-0.05630,-0.16697,9.82726,-0.00000,0.00000,-24685744208244365821214720.00000,0.29218,-0.06330,-0.56573,-0.96585,100.63244,0.31039,0.63851,-0.00747,-0.00476,0.76956,0.00000,0.00000,0.00000,0.00000,1,0,
07.02 17:06:14:910,275,-0.05103,-0.17915,9.83932,-0.00000,0.00000,-24685744208244365821214720.00000,0.29317,-0.06482,-0.56423,-0.96516,100.61604,0.31023,0.63862,-0.00746,-0.00475,0.76947,0.00000,0.00000,0.00000,0.00000,1,0,
07.02 17:06:14:921,276,-0.06594,-0.15351,9.82511,-0.00000,0.00000,-24685744208244365821214720.00000,0.29764,-0.06677,-0.56620,-0.96422,100.60722,0.31088,0.63868,-0.00746,-0.00474,0.76942,0.00000,0.00000,0.00000,0.00000,1,0,
07.02 17:06:14:932,277,-0.08128,-0.16816,9.84559,-0.00000,0.00000,-24685744208244365821214720.00000,0.29764,-0.06228,-0.56568,-0.96258,100.56822,0.31043,0.63894,-0.00745,-0.00473,0.76921,0.00000,0.00000,0.00000,0.00000,1,0,
07.02 17:06:14:941,278,-0.03931,-0.14558,9.80909,-0.00000,0.00000,-24685744208244365821214720.00000,0.29465,-0.06235,-0.56272,-0.96223,100.61032,0.31048,0.63866,-0.00745,-0.00473,0.76944,0.00000,0.00000,0.00000,0.00000,1,0,
07.02 17:06:14:952,279,-0.05613,-0.15709,9.82514,-0.00000,0.00000,-24685744208244365821214720.00000,0.29417,-0.06279,-0.56571,-0.96188,100.60917,0.30982,0.63866,-0.00744,-0.00473,0.76944,0.00000,0.00000,0.00000,0.00000,1,0,
07.02 17:06:14:962,280,-0.05741,-0.16403,9.84113,-0.00000,0.00000,-24685744208244365821214720.00000,0.29417,-0.06680,-0.56523,-0.96221,100.62254,0.30982,0.63857,-0.00744,-0.00473,0.76951,0.00000,0.00000,0.00000,0.00000,1,0,
07.02 17:06:14:971,281,-0.07732,-0.17908,9.84311,-0.00000,0.00000,-24685744208244365821214720.00000,0.29268,-0.06680,-0.56524,-0.96275,100.60870,0.30990,0.63867,-0.00745,-0.00474,0.76943,0.00000,0.00000,0.00000,0.00000,1,0,
07.02 17:06:14:982,282,-0.04860,-0.17701,9.82464,-0.00000,0.00000,-24685744208244365821214720.00000,0.29318,-0.06377,-0.56672,-0.96189,100.57604,0.30932,0.63889,-0.00744,-0.00473,0.76925,0.00000,0.00000,0.00000,0.00000,1,0,
07.02 17:06:14:990,283,-0.05319,-0.18171,9.83174,-0.00000,0.00000,-24685744208244365821214720.00000,0.29367,-0.06581,-0.56473,-0.96254,100.58473,0.30926,0.63883,-0.00744,-0.00474,0.76930,0.00000,0.00000,0.00000,0.00000,1,0,
07.02 17:06:15:002,284,-0.05708,-0.16577,9.82452,-0.00000,0.00000,-24685744208244365821214720.00000,0.29515,-0.06532,-0.56422,-0.96161,100.59555,0.30864,0.63876,-0.00743,-0.00474,0.76936,0.00000,0.00000,0.00000,0.00000,1,0,
07.02 17:06:15:012,285,-0.05037,-0.15696,9.81775,-0.00000,0.00000,-24685744208244365821214720.00000,0.29367,-0.06381,-0.56472,-0.96119,100.58842,0.30756,0.63880,-0.00742,-0.00474,0.76932,0.00000,0.00000,0.00000,0.00000,1,0,
07.02 17:06:15:022,286,-0.03316,-0.15760,9.83412,-0.00000,0.00000,-24685744208244365821214720.00000,0.29465,-0.06384,-0.56322,-0.96186,100.58920,0.30749,0.63880,-0.00743,-0.00474,0.76932,0.00000,0.00000,0.00000,0.00000,1,0,
07.02 17:06:15:032,287,-0.04265,-0.18212,9.81531,-0.00000,0.00000,-24685744208244365821214720.00000,0.29565,-0.06431,-0.56471,-0.96118,100.58486,0.30808,0.63883,-0.00743,-0.00474,0.76930,0.00000,0.00000,0.00000,0.00000,1,0,
07.02 17:06:15:042,288,-0.05305,-0.16621,9.83084,-0.00000,0.00000,-24685744208244365821214720.00000,0.29515,-0.06433,-0.56372,-0.96055,100.56179,0.30733,0.63898,-0.00742,-0.00473,0.76917,0.00000,0.00000,0.00000,0.00000,1,0,
07.02 17:06:15:051,289,-0.06287,-0.17860,9.82790,-0.00000,0.00000,-24685744208244365821214720.00000,0.29367,-0.06628,-0.56623,-0.95977,100.55752,0.30781,0.63901,-0.00742,-0.00473,0.76915,0.00000,0.00000,0.00000,0.00000,1,0,
07.02 17:06:15:061,290,-0.06714,-0.17872,9.84435,-0.00000,0.00000,-24685744208244365821214720.00000,0.29566,-0.06377,-0.56670,-0.96016,100.57803,0.30741,0.63887,-0.00742,-0.00473,0.76926,0.00000,0.00000,0.00000,0.00000,1,0,
07.02 17:06:15:072,291,-0.04345,-0.15162,9.82702,-0.00000,0.00000,-24685744208244365821214720.00000,0.29366,-0.06534,-0.56324,-0.95941,100.57170,0.30699,0.63892,-0.00741,-0.00473,0.76923,0.00000,0.00000,0.00000,0.00000,1,0,
07.02 17:06:15:082,292,-0.07107,-0.14651,9.83215,-0.00000,0.00000,-24685744208244365821214720.00000,0.29218,-0.06481,-0.56474,-0.95926,100.56989,0.30719,0.63893,-0.00741,-0.00473,0.76922,0.00000,0.00000,0.00000,0.00000,1,0,
07.02 17:06:15:092,293,-0.07119,-0.15595,9.82855,-0.00000,0.00000,-24685744208244365821214720.00000,0.29365,-0.06187,-0.56173,-0.95879,100.56913,0.30709,0.63893,-0.00741,-0.00472,0.76921,0.00000,0.00000,0.00000,0.00000,1,0,
07.02 17:06:15:103,294,-0.05552,-0.15917,9.83772,-0.00000,0.00000,-24685744208244365821214720.00000,0.29366,-0.06583,-0.56374,-0.95843,100.55488,0.30760,0.63903,-0.00741,-0.00472,0.76913,0.00000,0.00000,0.00000,0.00000,1,0,
07.02 17:06:15:111,295,-0.04457,-0.16648,9.81421,-0.00000,0.00000,-24685744208244365821214720.00000,0.29366,-0.06284,-0.56323,-0.95961,100.54103,0.30845,0.63912,-0.00742,-0.00472,0.76906,0.00000,0.00000,0.00000,0.00000,1,0,
07.02 17:06:15:120,296,-0.06677,-0.19134,9.83582,-0.00000,0.00000,-24685744208244365821214720.00000,0.29317,-0.06582,-0.56424,-0.95898,100.55382,0.30820,0.63904,-0.00742,-0.00472,0.76913,0.00000,0.00000,0.00000,0.00000,1,0,
07.02 17:06:15:130,297,-0.06422,-0.18314,9.84385,-0.00000,0.00000,-24685744208244365821214720.00000,0.29367,-0.06579,-0.56573,-0.95851,100.56542,0.30833,0.63896,-0.00741,-0.00471,0.76919,0.00000,0.00000,0.00000,0.00000,1,0,
07.02 17:06:15:140,298,-0.05528,-0.16655,9.81577,-0.00000,0.00000,-24685744208244365821214720.00000,0.29465,-0.06483,-0.56372,-0.95649,100.56438,0.30744,0.63897,-0.00740,-0.00471,0.76919,0.00000,0.00000,0.00000,0.00000,1,0,
07.02 17:06:15:152,299,-0.05877,-0.16997,9.82704,-0.00000,0.00000,-24685744208244365821214720.00000,0.29318,-0.06578,-0.56623,-0.95578,100.56673,0.30713,0.63895,-0.00739,-0.00470,0.76920,0.00000,0.00000,0.00000,0.00000,1,0,
07.02 17:06:15:161,300,-0.05400,-0.16341,9.82516,-0.00000,0.00000,-24685744208244365821214720.00000,0.29217,-0.06286,-0.56274,-0.95513,100.53719,0.30683,0.63915,-0.00739,-0.00470,0.76903,0.00000,0.00000,0.00000,0.00000,1,0,
07.02 17:06:15:173,301,-0.04571,-0.15877,9.84090,-0.00000,0.00000,-24685744208244365821214720.00000,0.29268,-0.06528,-0.56623,-0.95475,100.53342,0.30769,0.63917,-0.00739,-0.00469,0.76901,0.00000,0.00000,0.00000,0.00000,1,0,
07.02 17:06:15:182,302,-0.04674,-0.17512,9.82232,-0.00000,0.00000,-24685744208244365821214720.00000,0.29516,-0.06530,-0.56522,-0.95478,100.54027,0.30776,0.63913,-0.00739,-0.00469,0.76905,0.00000,0.00000,0.00000,0.00000,1,0,
07.02 17:06:15:191,303,-0.04826,-0.17371,9.82468,-0.00000,0.00000,-24685744208244365821214720.00000,0.29515,-0.06433,-0.56372,-0.95376,100.53091,0.30868,0.63919,-0.00739,-0.00468,0.76900,0.00000,0.00000,0.00000,0.00000,1,0,
07.02 17:06:15:202,304,-0.04473,-0.16733,9.81562,-0.00000,0.00000,-24685744208244365821214720.00000,0.29466,-0.06580,-0.56522,-0.95545,100.53676,0.30832,0.63915,-0.00740,-0.00469,0.76903,0.00000,0.00000,0.00000,0.00000,1,0,
07.02 17:06:15:211,305,-0.04829,-0.16149,9.83539,-0.00000,0.00000,-24685744208244365821214720.00000,0.29566,-0.06428,-0.56571,-0.95403,100.52236,0.30931,0.63925,-0.00740,-0.00468,0.76895,0.00000,0.00000,0.00000,0.00000,1,0,
07.02 17:06:15:220,306,-0.07336,-0.20573,9.83067,-0.00000,0.00000,-24685744208244365821214720.00000,0.29465,-0.06232,-0.56421,-0.95410,100.52250,0.30932,0.63925,-0.00740,-0.00468,0.76895,0.00000,0.00000,0.00000,0.00000,1,0,
07.02 17:06:15:232,307,-0.05138,-0.16924,9.82383,-0.00000,0.00000,-24685744208244365821214720.00000,0.29416,-0.06483,-0.56373,-0.95330,100.52560,0.30903,0.63923,-0.00739,-0.00467,0.76897,0.00000,0.00000,0.00000,0.00000,1,0,
07.02 17:06:15:242,308,-0.06520,-0.18875,9.82569,-0.00000,0.00000,-24685744208244365821214720.00000,0.29565,-0.06383,-0.56371,-0.95319,100.52095,0.30830,0.63926,-0.00739,-0.00468,0.76894,0.00000,0.00000,0.00000,0.00000,1,0,
07.02 17:06:15:252,309,-0.08531,-0.17818,9.82874,-0.00000,0.00000,-24685744208244365821214720.00000,0.29417,-0.06379,-0.56572,-0.95340,100.50939,0.30890,0.63933,-0.00739,-0.00467,0.76888,0.00000,0.00000,0.00000,0.00000,1,0,
07.02 17:06:15:263,310,-0.07048,-0.16692,9.83458,-0.00000,0.00000,-24685744208244365821214720.00000,0.29317,-0.06381,-0.56473,-0.95388,100.51209,0.30838,0.63932,-0.00739,-0.00468,0.76889,0.00000,0.00000,0.00000,0.00000,1,0,
07.02 17:06:15:272,311,-0.05196,-0.17507,9.82557,-0.00000,0.00000,-24685744208244365821214720.00000,0.29466,-0.06530,-0.56522,-0.95403,100.50778,0.30844,0.63935,-0.00739,-0.00468,0.76887,0.00000,0.00000,0.00000,0.00000,1,0,
07.02 17:06:15:281,312,-0.07229,-0.17388,9.83243,-0.00000,0.00000,-24685744208244365821214720.00000,0.29317,-0.06580,-0.56523,-0.95483,100.50282,0.30868,0.63938,-0.00740,-0.00468,0.76884,0.00000,0.00000,0.00000,0.00000,1,0,
07.02 17:06:15:290,313,-0.06170,-0.17310,9.82773,-0.00000,0.00000,-24685744208244365821214720.00000,0.29517,-0.06576,-0.56671,-0.95478,100.50726,0.30794,0.63935,-0.00739,-0.00469,0.76887,0.00000,0.00000,0.00000,0.00000,1,0,
07.02 17:06:15:302,314,-0.04085,-0.15857,9.83474,-0.00000,0.00000,-24685744208244365821214720.00000,0.29368,-0.06227,-0.56671,-0.95437,100.50376,0.30812,0.63937,-0.00739,-0.00468,0.76885,0.00000,0.00000,0.00000,0.00000,1,0,
07.02 17:06:15:312,315,-0.06815,-0.15519,9.83551,-0.00000,0.00000,-24685744208244365821214720.00000,0.29367,-0.06381,-0.56472,-0.95396,100.48515,0.30814,0.63950,-0.00739,-0.00468,0.76874,0.00000,0.00000,0.00000,0.00000,1,0,
07.02 17:06:15:323,316,-0.04381,-0.15608,9.82468,-0.00000,0.00000,-24685744208244365821214720.00000,0.29365,-0.06385,-0.56273,-0.95521,100.48418,0.30813,0.63950,-0.00740,-0.00469,0.76874,0.00000,0.00000,0.00000,0.00000,1,0,
07.02 17:06:15:332,317,-0.06550,-0.16911,9.81515,-0.00000,0.00000,-24685744208244365821214720.00000,0.29516,-0.06380,-0.56521,-0.95472,100.48315,0.30750,0.63951,-0.00739,-0.00469,0.76873,0.00000,0.00000,0.00000,0.00000,1,0,
07.02 17:06:15:343,318,-0.04156,-0.17884,9.83038,-0.00000,0.00000,-24685744208244365821214720.00000,0.29466,-0.06380,-0.56521,-0.95502,100.48063,0.30651,0.63953,-0.00739,-0.00470,0.76872,0.00000,0.00000,0.00000,0.00000,1,0,
07.02 17:06:15:353,319,-0.05722,-0.16030,9.82125,-0.00000,0.00000,-24685744208244365821214720.00000,0.29416,-0.06433,-0.56373,-0.95492,100.47860,0.30653,0.63954,-0.00739,-0.00470,0.76871,0.00000,0.00000,0.00000,0.00000,1,0,
07.02 17:06:15:361,320,-0.05932,-0.16616,9.82509,-0.00000,0.00000,-24685744208244365821214720.00000,0.29417,-0.06529,-0.56572,-0.95483,100.48327,0.30740,0.63951,-0.00739,-0.00469,0.76873,0.00000,0.00000,0.00000,0.00000,1,0,
07.02 17:06:15:372,321,-0.04307,-0.18648,9.83041,-0.00000,0.00000,-24685744208244365821214720.00000,0.29465,-0.06384,-0.56322,-0.95557,100.48957,0.30742,0.63947,-0.00740,-0.00470,0.76877,0.00000,0.00000,0.00000,0.00000,1,0,
07.02 17:06:15:383,322,-0.06356,-0.17630,9.82438,-0.00000,0.00000,-24685744208244365821214720.00000,0.29267,-0.06583,-0.56374,-0.95437,100.48035,0.30774,0.63953,-0.00739,-0.00468,0.76872,0.00000,0.00000,0.00000,0.00000,1,0,
07.02 17:06:15:392,323,-0.07092,-0.16654,9.82526,-0.00000,0.00000,-24685744208244365821214720.00000,0.29515,-0.06633,-0.56323,-0.95320,100.48933,0.30701,0.63947,-0.00738,-0.00468,0.76877,0.00000,0.00000,0.00000,0.00000,1,0,
07.02 17:06:15:402,324,-0.05737,-0.16395,9.83903,-0.00000,0.00000,-24685744208244365821214720.00000,0.29267,-0.06431,-0.56473,-0.95397,100.44514,0.30675,0.63977,-0.00738,-0.00469,0.76852,0.00000,0.00000,0.00000,0.00000,1,0,
07.02 17:06:15:412,325,-0.06375,-0.14468,9.81276,-0.00000,0.00000,-24685744208244365821214720.00000,0.29416,-0.06580,-0.56523,-0.95358,100.43775,0.30681,0.63981,-0.00738,-0.00468,0.76848,0.00000,0.00000,0.00000,0.00000,1,0,
07.02 17:06:15:422,326,-0.04781,-0.17046,9.82872,-0.00000,0.00000,-24685744208244365821214720.00000,0.29665,-0.06729,-0.56521,-0.95265,100.44131,0.30676,0.63979,-0.00738,-0.00468,0.76850,0.00000,0.00000,0.00000,0.00000,1,0,
07.02 17:06:15:432,327,-0.05237,-0.16342,9.84066,-0.00000,0.00000,-24685744208244365821214720.00000,0.29267,-0.06583,-0.56374,-0.95158,100.40000,0.30677,0.64007,-0.00737,-0.00467,0.76827,0.00000,0.00000,0.00000,0.00000,1,0,
07.02 17:06:15:441,328,-0.06364,-0.16493,9.82752,-0.00000,0.00000,-24685744208244365821214720.00000,0.29565,-0.06482,-0.56372,-0.95094,100.41477,0.30669,0.63997,-0.00737,-0.00466,0.76835,0.00000,0.00000,0.00000,0.00000,1,0,
07.02 17:06:15:452,329,-0.04850,-0.16762,9.82538,-0.00000,0.00000,-24685744208244365821214720.00000,0.29613,-0.06437,-0.56122,-0.95019,100.38840,0.30752,0.64015,-0.00737,-0.00465,0.76820,0.00000,0.00000,0.00000,0.00000,1,0,
07.02 17:06:15:462,330,-0.05815,-0.16385,9.83842,-0.00000,0.00000,-24685744208244365821214720.00000,0.29416,-0.06233,-0.56372,-0.95031,100.42424,0.30831,0.63991,-0.00737,-0.00465,0.76840,0.00000,0.00000,0.00000,0.00000,1,0,
07.02 17:06:15:471,331,-0.04736,-0.17814,9.84459,-0.00000,0.00000,-24685744208244365821214720.00000,0.29417,-0.06377,-0.56671,-0.95040,100.41924,0.30773,0.63994,-0.00737,-0.00465,0.76838,0.00000,0.00000,0.00000,0.00000,1,0,
07.02 17:06:15:482,332,-0.05707,-0.16910,9.81708,-0.00000,0.00000,-24685744208244365821214720.00000,0.29515,-0.06533,-0.56372,-0.95070,100.41330,0.30730,0.63998,-0.00737,-0.00466,0.76834,0.00000,0.00000,0.00000,0.00000,1,0,
07.02 17:06:15:492,333,-0.06453,-0.18050,9.83265,-0.00000,0.00000,-24685744208244365821214720.00000,0.29614,-0.06335,-0.56271,-0.95089,100.42133,0.30729,0.63993,-0.00737,-0.00466,0.76839,0.00000,0.00000,0.00000,0.00000,1,0,
07.02 17:06:15:500,334,-0.05517,-0.16107,9.82568,-0.00000,0.00000,-24685744208244365821214720.00000,0.29218,-0.06480,-0.56524,-0.95142,100.38958,0.30713,0.64014,-0.00737,-0.00466,0.76821,0.00000,0.00000,0.00000,0.00000,1,0,
07.02 17:06:15:510,335,-0.06062,-0.15923,9.82568,-0.00000,0.00000,-24685744208244365821214720.00000,0.29317,-0.06530,-0.56523,-0.95266,100.36873,0.30698,0.64028,-0.00738,-0.00467,0.76809,0.00000,0.00000,0.00000,0.00000,1,0,
07.02 17:06:15:521,336,-0.04596,-0.16787,9.83582,-0.00000,0.00000,-24685744208244365821214720.00000,0.29366,-0.06484,-0.56324,-0.95307,100.36255,0.30765,0.64032,-0.00739,-0.00467,0.76806,0.00000,0.00000,0.00000,0.00000,1,0,
07.02 17:06:15:531,337,-0.06411,-0.15126,9.82695,-0.00000,0.00000,-24685744208244365821214720.00000,0.29467,-0.06425,-0.56770,-0.95410,100.37207,0.30741,0.64026,-0.00739,-0.00468,0.76811,0.00000,0.00000,0.00000,0.00000,1,0,
07.02 17:06:15:541,338,-0.05424,-0.16742,9.83291,-0.00000,0.00000,-24685744208244365821214720.00000,0.29415,-0.06334,-0.56323,-0.95408,100.37666,0.30643,0.64022,-0.00738,-0.00468,0.76814,0.00000,0.00000,0.00000,0.00000,1,0,
07.02 17:06:15:551,339,-0.05724,-0.18917,9.82096,-0.00000,0.00000,-24685744208244365821214720.00000,0.29316,-0.06386,-0.56224,-0.95465,100.37936,0.30696,0.64021,-0.00739,-0.00468,0.76815,0.00000,0.00000,0.00000,0.00000,1,0,
07.02 17:06:15:562,340,-0.04403,-0.16947,9.81984,-0.00000,0.00000,-24685744208244365821214720.00000,0.29316,-0.06733,-0.56375,-0.95494,100.37771,0.30671,0.64022,-0.00739,-0.00469,0.76814,0.00000,0.00000,0.00000,0.00000,1,0,
07.02 17:06:15:571,341,-0.05255,-0.15999,9.83365,-0.00000,0.00000,-24685744208244365821214720.00000,0.29614,-0.06682,-0.56372,-0.95516,100.38124,0.30702,0.64019,-0.00739,-0.00469,0.76816,0.00000,0.00000,0.00000,0.00000,1,0,
07.02 17:06:15:580,342,-0.06317,-0.16978,9.83613,-0.00000,0.00000,-24685744208244365821214720.00000,0.29367,-0.06629,-0.56573,-0.95483,100.39205,0.30710,0.64012,-0.00739,-0.00469,0.76822,0.00000,0.00000,0.00000,0.00000,1,0,
07.02 17:06:15:591,343,-0.06102,-0.18167,9.82292,-0.00000,0.00000,-24685744208244365821214720.00000,0.29515,-0.06483,-0.56372,-0.95400,100.36880,0.30692,0.64028,-0.00739,-0.00468,0.76809,0.00000,0.00000,0.00000,0.00000,1,0,
07.02 17:06:15:602,344,-0.04547,-0.17913,9.84063,-0.00000,0.00000,-24685744208244365821214720.00000,0.29415,-0.06384,-0.56323,-0.95407,100.37006,0.30687,0.64027,-0.00739,-0.00468,0.76810,0.00000,0.00000,0.00000,0.00000,1,0,
07.02 17:06:15:611,345,-0.05284,-0.15803,9.83060,-0.00000,0.00000,-24685744208244365821214720.00000,0.29366,-0.06333,-0.56373,-0.95338,100.36898,0.30706,0.64028,-0.00739,-0.00467,0.76810,0.00000,0.00000,0.00000,0.00000,1,0,
07.02 17:06:15:623,346,-0.06363,-0.18069,9.81200,-0.00000,0.00000,-24685744208244365821214720.00000,0.29466,-0.06480,-0.56522,-0.95305,100.36765,0.30724,0.64029,-0.00738,-0.00467,0.76809,0.00000,0.00000,0.00000,0.00000,1,0,
07.02 17:06:15:632,347,-0.06098,-0.17631,9.83591,-0.00000,0.00000,-24685744208244365821214720.00000,0.29367,-0.06479,-0.56572,-0.95333,100.35581,0.30713,0.64036,-0.00739,-0.00467,0.76802,0.00000,0.00000,0.00000,0.00000,1,0,
07.02 17:06:15:642,348,-0.05473,-0.16655,9.81481,-0.00000,0.00000,-24685744208244365821214720.00000,0.29613,-0.06535,-0.56222,-0.95313,100.36669,0.30609,0.64029,-0.00738,-0.00468,0.76808,0.00000,0.00000,0.00000,0.00000,1,0,
07.02 17:06:15:652,349,-0.04642,-0.17890,9.81031,-0.00000,0.00000,-24685744208244365821214720.00000,0.29515,-0.06532,-0.56422,-0.95317,100.36841,0.30620,0.64028,-0.00738,-0.00468,0.76809,0.00000,0.00000,0.00000,0.00000,1,0,
07.02 17:06:15:661,350,-0.04924,-0.16351,9.81655,-0.00000,0.00000,-24685744208244365821214720.00000,0.29317,-0.06530,-0.56523,-0.95207,100.35859,0.30603,0.64035,-0.00737,-0.00467,0.76804,0.00000,0.00000,0.00000,0.00000,1,0,
07.02 17:06:15:672,351,-0.04223,-0.17637,9.81098,-0.00000,0.00000,-24685744208244365821214720.00000,0.29615,-0.06380,-0.56470,-0.95184,100.35780,0.30662,0.64035,-0.00737,-0.00467,0.76803,0.00000,0.00000,0.00000,0.00000,1,0,
07.02 17:06:15:682,352,-0.04884,-0.16185,9.83925,-0.00000,0.00000,-24685744208244365821214720.00000,0.29516,-0.06579,-0.56522,-0.95009,100.35760,0.30677,0.64035,-0.00737,-0.00465,0.76803,0.00000,0.00000,0.00000,0.00000,1,0,
07.02 17:06:15:692,353,-0.05421,-0.14969,9.83060,-0.00000,0.00000,-24685744208244365821214720.00000,0.29465,-0.06483,-0.56372,-0.95037,100.34312,0.30653,0.64045,-0.00737,-0.00466,0.76795,0.00000,0.00000,0.00000,0.00000,1,0,
07.02 17:06:15:702,354,-0.06093,-0.16879,9.82254,-0.00000,0.00000,-24685744208244365821214720.00000,0.29317,-0.06330,-0.56522,-0.95007,100.35731,0.30552,0.64035,-0.00736,-0.00466,0.76803,0.00000,0.00000,0.00000,0.00000,1,0,
07.02 17:06:15:712,355,-0.06465,-0.17425,9.83203,-0.00000,0.00000,-24685744208244365821214720.00000,0.29366,-0.06434,-0.56323,-0.94978,100.34037,0.30576,0.64047,-0.00736,-0.00466,0.76794,0.00000,0.00000,0.00000,0.00000,1,0,
07.02 17:06:15:721,356,-0.06533,-0.17159,9.83889,-0.00000,0.00000,-24685744208244365821214720.00000,0.29465,-0.06535,-0.56273,-0.94943,100.33625,0.30506,0.64050,-0.00735,-0.00466,0.76791,0.00000,0.00000,0.00000,0.00000,1,0,
07.02 17:06:15:732,357,-0.05240,-0.15641,9.82280,-0.00000,0.00000,-24685744208244365821214720.00000,0.29368,-0.06625,-0.56772,-0.94900,100.33582,0.30510,0.64050,-0.00735,-0.00465,0.76791,0.00000,0.00000,0.00000,0.00000,1,0,
07.02 17:06:15:741,358,-0.06666,-0.15793,9.83413,-0.00000,0.00000,-24685744208244365821214720.00000,0.29417,-0.06627,-0.56672,-0.94838,100.32845,0.30485,0.64055,-0.00734,-0.00465,0.76787,0.00000,0.00000,0.00000,0.00000,1,0,
07.02 17:06:15:751,359,-0.06094,-0.17025,9.82669,-0.00000,0.00000,-24685744208244365821214720.00000,0.29466,-0.06380,-0.56521,-0.94900,100.33043,0.30383,0.64053,-0.00734,-0.00466,0.76788,0.00000,0.00000,0.00000,0.00000,1,0,
07.02 17:06:15:761,360,-0.05595,-0.18326,9.82266,-0.00000,0.00000,-24685744208244365821214720.00000,0.29316,-0.06334,-0.56323,-0.94954,100.32883,0.30306,0.64055,-0.00734,-0.00467,0.76787,0.00000,0.00000,0.00000,0.00000,1,0,
07.02 17:06:15:772,361,-0.06696,-0.15967,9.81982,-0.00000,0.00000,-24685744208244365821214720.00000,0.29416,-0.06482,-0.56423,-0.94952,100.33008,0.30275,0.64054,-0.00734,-0.00467,0.76788,0.00000,0.00000,0.00000,0.00000,1,0,
07.02 17:06:15:782,362,-0.05556,-0.16760,9.82592,-0.00000,0.00000,-24685744208244365821214720.00000,0.29465,-0.06483,-0.56372,-0.94975,100.34777,0.30340,0.64042,-0.00734,-0.00467,0.76798,0.00000,0.00000,0.00000,0.00000,1,0,
07.02 17:06:15:791,363,-0.06328,-0.16698,9.81868,-0.00000,0.00000,-24685744208244365821214720.00000,0.29615,-0.06377,-0.56620,-0.95056,100.36147,0.30296,0.64033,-0.00734,-0.00468,0.76805,0.00000,0.00000,0.00000,0.00000,1,0,
07.02 17:06:15:801,364,-0.06741,-0.16821,9.81519,-0.00000,0.00000,-24685744208244365821214720.00000,0.29415,-0.06584,-0.56323,-0.95155,100.35423,0.30301,0.64038,-0.00735,-0.00468,0.76801,0.00000,0.00000,0.00000,0.00000,1,0,
07.02 17:06:15:810,365,-0.06239,-0.17386,9.82327,-0.00000,0.00000,-24685744208244365821214720.00000,0.29267,-0.06584,-0.56325,-0.95173,100.36246,0.30336,0.64032,-0.00735,-0.00468,0.76806,0.00000,0.00000,0.00000,0.00000,1,0,
07.02 17:06:15:821,366,-0.05398,-0.16877,9.84132,-0.00000,0.00000,-24685744208244365821214720.00000,0.29466,-0.06580,-0.56522,-0.95137,100.35422,0.30364,0.64038,-0.00735,-0.00468,0.76801,0.00000,0.00000,0.00000,0.00000,1,0,
07.02 17:06:15:832,367,-0.06113,-0.16866,9.83315,-0.00000,0.00000,-24685744208244365821214720.00000,0.29316,-0.06433,-0.56374,-0.95088,100.38232,0.30349,0.64019,-0.00735,-0.00468,0.76817,0.00000,0.00000,0.00000,0.00000,1,0,
07.02 17:06:15:842,368,-0.06182,-0.15548,9.82497,-0.00000,0.00000,-24685744208244365821214720.00000,0.29465,-0.06334,-0.56322,-0.95060,100.37837,0.30294,0.64021,-0.00734,-0.00468,0.76815,0.00000,0.00000,0.00000,0.00000,1,0,
07.02 17:06:15:852,369,-0.04559,-0.17896,9.82810,-0.00000,0.00000,-24685744208244365821214720.00000,0.29415,-0.06534,-0.56323,-0.94983,100.38390,0.30368,0.64018,-0.00734,-0.00467,0.76818,0.00000,0.00000,0.00000,0.00000,1,0,
07.02 17:06:15:862,370,-0.05900,-0.17549,9.83472,-0.00000,0.00000,-24685744208244365821214720.00000,0.29565,-0.06480,-0.56471,-0.94922,100.37650,0.30393,0.64023,-0.00734,-0.00466,0.76814,0.00000,0.00000,0.00000,0.00000,1,0,
07.02 17:06:15:871,371,-0.05362,-0.17183,9.81476,-0.00000,0.00000,-24685744208244365821214720.00000,0.29268,-0.06428,-0.56623,-0.94923,100.39161,0.30417,0.64012,-0.00734,-0.00466,0.76822,0.00000,0.00000,0.00000,0.00000,1,0,
07.02 17:06:15:880,372,-0.03440,-0.15461,9.81901,-0.00000,0.00000,-24685744208244365821214720.00000,0.29466,-0.06231,-0.56471,-0.94857,100.38409,0.30455,0.64018,-0.00734,-0.00466,0.76818,0.00000,0.00000,0.00000,0.00000,1,0,
07.02 17:06:15:890,373,-0.08410,-0.17377,9.82437,-0.00000,0.00000,-24685744208244365821214720.00000,0.29416,-0.06681,-0.56473,-0.94800,100.38371,0.30386,0.64018,-0.00733,-0.00466,0.76818,0.00000,0.00000,0.00000,0.00000,1,0,
07.02 17:06:15:902,374,-0.05402,-0.16324,9.82251,-0.00000,0.00000,-24685744208244365821214720.00000,0.29565,-0.06581,-0.56422,-0.94890,100.39587,0.30270,0.64010,-0.00733,-0.00467,0.76825,0.00000,0.00000,0.00000,0.00000,1,0,
07.02 17:06:15:911,375,-0.04500,-0.17685,9.83250,-0.00000,0.00000,-24685744208244365821214720.00000,0.29416,-0.06532,-0.56423,-0.95011,100.38654,0.30274,0.64016,-0.00734,-0.00468,0.76819,0.00000,0.00000,0.00000,0.00000,1,0,
07.02 17:06:15:921,376,-0.05513,-0.15050,9.83641,-0.00000,0.00000,-24685744208244365821214720.00000,0.29416,-0.06381,-0.56472,-0.94914,100.38049,0.30282,0.64020,-0.00733,-0.00467,0.76816,0.00000,0.00000,0.00000,0.00000,1,0,
07.02 17:06:15:932,377,-0.06530,-0.15455,9.83350,-0.00000,0.00000,-24685744208244365821214720.00000,0.29416,-0.06481,-0.56472,-0.94940,100.38271,0.30228,0.64018,-0.00733,-0.00468,0.76817,0.00000,0.00000,0.00000,0.00000,1,0,
07.02 17:06:15:942,378,-0.05891,-0.18851,9.82106,-0.00000,0.00000,-24685744208244365821214720.00000,0.29415,-0.06484,-0.56323,-0.94929,100.38303,0.30256,0.64018,-0.00733,-0.00467,0.76817,0.00000,0.00000,0.00000,0.00000,1,0,
07.02 17:06:15:951,379,-0.06206,-0.16481,9.82762,-0.00000,0.00000,-24685744208244365821214720.00000,0.29317,-0.06480,-0.56523,-0.95021,100.38748,0.30317,0.64015,-0.00734,-0.00468,0.76820,0.00000,0.00000,0.00000,0.00000,1,0,
07.02 17:06:15:962,380,-0.04088,-0.16825,9.81970,-0.00000,0.00000,-24685744208244365821214720.00000,0.29665,-0.06379,-0.56520,-0.95013,100.39162,0.30266,0.64012,-0.00734,-0.00468,0.76822,0.00000,0.00000,0.00000,0.00000,1,0,
07.02 17:06:15:971,381,-0.04118,-0.15999,9.82902,-0.00000,0.00000,-24685744208244365821214720.00000,0.29466,-0.06329,-0.56571,-0.94999,100.38027,0.30202,0.64020,-0.00733,-0.00468,0.76816,0.00000,0.00000,0.00000,0.00000,1,0,
07.02 17:06:15:982,382,-0.03429,-0.15297,9.83052,-0.00000,0.00000,-24685744208244365821214720.00000,0.29414,-0.06488,-0.56124,-0.95066,100.37177,0.30117,0.64026,-0.00733,-0.00469,0.76811,0.00000,0.00000,0.00000,0.00000,1,0,
07.02 17:06:15:992,383,-0.02703,-0.17123,9.82049,-0.00000,0.00000,-24685744208244365821214720.00000,0.29565,-0.06630,-0.56472,-0.95114,100.37123,0.30153,0.64026,-0.00734,-0.00469,0.76811,0.00000,0.00000,0.00000,0.00000,1,0,
07.02 17:06:16:001,384,-0.05533,-0.17250,9.82828,-0.00000,0.00000,-24685744208244365821214720.00000,0.29515,-0.06531,-0.56472,-0.95183,100.36156,0.30083,0.64033,-0.00734,-0.00470,0.76805,0.00000,0.00000,0.00000,0.00000,1,0,
07.02 17:06:16:012,385,-0.07837,-0.16195,9.82688,-0.00000,0.00000,-24685744208244365821214720.00000,0.29317,-0.06430,-0.56523,-0.95126,100.36256,0.30076,0.64032,-0.00733,-0.00470,0.76806,0.00000,0.00000,0.00000,0.00000,1,0,
07.02 17:06:16:021,386,-0.06043,-0.16410,9.82719,-0.00000,0.00000,-24685744208244365821214720.00000,0.29366,-0.06535,-0.56274,-0.95175,100.35751,0.30019,0.64035,-0.00733,-0.00470,0.76803,0.00000,0.00000,0.00000,0.00000,1,0,
07.02 17:06:16:031,387,-0.05713,-0.15169,9.82657,-0.00000,0.00000,-24685744208244365821214720.00000,0.29317,-0.06781,-0.56474,-0.95210,100.36724,0.30007,0.64029,-0.00733,-0.00471,0.76809,0.00000,0.00000,0.00000,0.00000,1,0,
07.02 17:06:16:040,388,-0.06228,-0.16439,9.83961,-0.00000,0.00000,-24685744208244365821214720.00000,0.29515,-0.06581,-0.56422,-0.95260,100.37672,0.30065,0.64022,-0.00734,-0.00471,0.76814,0.00000,0.00000,0.00000,0.00000,1,0,
07.02 17:06:16:052,389,-0.04271,-0.17343,9.83973,-0.00000,0.00000,-24685744208244365821214720.00000,0.29366,-0.06632,-0.56424,-0.95195,100.39288,0.29988,0.64012,-0.00733,-0.00471,0.76823,0.00000,0.00000,0.00000,0.00000,1,0,
07.02 17:06:16:062,390,-0.05268,-0.18234,9.83272,-0.00000,0.00000,-24685744208244365821214720.00000,0.29415,-0.06484,-0.56323,-0.95199,100.40086,0.29914,0.64006,-0.00732,-0.00471,0.76827,0.00000,0.00000,0.00000,0.00000,1,0,
07.02 17:06:16:072,391,-0.06712,-0.17679,9.84862,-0.00000,0.00000,-24685744208244365821214720.00000,0.29318,-0.06376,-0.56722,-0.95156,100.41122,0.29838,0.63999,-0.00732,-0.00471,0.76833,0.00000,0.00000,0.00000,0.00000,1,0,
07.02 17:06:16:082,392,-0.05219,-0.15553,9.81565,-0.00000,0.00000,-24685744208244365821214720.00000,0.29416,-0.06231,-0.56472,-0.95073,100.42374,0.29792,0.63991,-0.00731,-0.00471,0.76840,0.00000,0.00000,0.00000,0.00000,1,0,
07.02 17:06:16:091,393,-0.06430,-0.15127,9.82762,-0.00000,0.00000,-24685744208244365821214720.00000,0.29466,-0.06481,-0.56472,-0.95131,100.41793,0.29755,0.63995,-0.00731,-0.00472,0.76837,0.00000,0.00000,0.00000,0.00000,1,0,
07.02 17:06:16:101,394,-0.05732,-0.17304,9.83115,-0.00000,0.00000,-24685744208244365821214720.00000,0.29515,-0.06282,-0.56421,-0.95200,100.41940,0.29729,0.63994,-0.00731,-0.00472,0.76838,0.00000,0.00000,0.00000,0.00000,1,0,
07.02 17:06:16:111,395,-0.05070,-0.17886,9.81801,-0.00000,0.00000,-24685744208244365821214720.00000,0.29416,-0.06581,-0.56473,-0.95025,100.40711,0.29730,0.64002,-0.00730,-0.00471,0.76831,0.00000,0.00000,0.00000,0.00000,1,0,
07.02 17:06:16:121,396,-0.05246,-0.16351,9.83265,-0.00000,0.00000,-24685744208244365821214720.00000,0.29417,-0.06527,-0.56672,-0.95041,100.40942,0.29640,0.64001,-0.00730,-0.00472,0.76832,0.00000,0.00000,0.00000,0.00000,1,0,
07.02 17:06:16:133,397,-0.05257,-0.16437,9.85165,-0.00000,0.00000,-24685744208244365821214720.00000,0.29564,-0.06333,-0.56371,-0.95023,100.40642,0.29630,0.64003,-0.00729,-0.00472,0.76830,0.00000,0.00000,0.00000,0.00000,1,0,
07.02 17:06:16:142,398,-0.04736,-0.16863,9.82285,-0.00000,0.00000,-24685744208244365821214720.00000,0.29665,-0.06377,-0.56619,-0.95059,100.41060,0.29667,0.64000,-0.00730,-0.00472,0.76833,0.00000,0.00000,0.00000,0.00000,1,0,
07.02 17:06:16:152,399,-0.04879,-0.16454,9.84361,-0.00000,0.00000,-24685744208244365821214720.00000,0.29615,-0.06230,-0.56520,-0.95142,100.40459,0.29614,0.64004,-0.00730,-0.00472,0.76829,0.00000,0.00000,0.00000,0.00000,1,0,
07.02 17:06:16:162,400,-0.07587,-0.17443,9.83081,-0.00000,0.00000,-24685744208244365821214720.00000,0.29416,-0.06331,-0.56472,-0.95212,100.39960,0.29649,0.64007,-0.00731,-0.00473,0.76827,0.00000,0.00000,0.00000,0.00000,1,0,
07.02 17:06:16:170,401,-0.05534,-0.17996,9.80139,-0.00000,0.00000,-24685744208244365821214720.00000,0.29516,-0.06280,-0.56521,-0.96170,100.41235,0.32376,0.63998,-0.00754,-0.00464,0.76834,0.00000,0.00000,0.00000,0.00000,1,0,
07.02 17:06:16:181,402,-0.04969,-0.16269,9.86200,-0.00000,0.00000,-24685744208244365821214720.00000,0.29466,-0.06330,-0.56521,-0.96183,100.42313,0.32405,0.63991,-0.00754,-0.00464,0.76840,0.00000,0.00000,0.00000,0.00000,1,0,
07.02 17:06:16:191,403,-0.04557,-0.15821,9.79183,-0.00000,0.00000,-24685744208244365821214720.00000,0.29516,-0.06778,-0.56572,-0.96124,100.41880,0.32446,0.63994,-0.00754,-0.00463,0.76837,0.00000,0.00000,0.00000,0.00000,1,0,
07.02 17:06:16:202,404,-0.08852,-0.16254,9.87282,-0.00000,0.00000,-24685744208244365821214720.00000,0.29466,-0.06482,-0.56422,-0.96120,100.41164,0.32663,0.63999,-0.00756,-0.00462,0.76833,0.00000,0.00000,0.00000,0.00000,1,0,
07.02 17:06:16:212,405,-0.05802,-0.12552,9.79629,-0.00000,0.00000,-24685744208244365821214720.00000,0.29466,-0.06482,-0.56422,-0.96121,100.41721,0.32722,0.63995,-0.00756,-0.00462,0.76836,0.00000,0.00000,0.00000,0.00000,1,0,
07.02 17:06:16:221,406,-0.04770,-0.18702,9.84915,-0.00000,0.00000,-24685744208244365821214720.00000,0.29515,-0.06432,-0.56422,-0.96139,100.42032,0.32631,0.63993,-0.00756,-0.00462,0.76838,0.00000,0.00000,0.00000,0.00000,1,0,
07.02 17:06:16:231,407,-0.05352,-0.15232,9.77037,-0.00000,0.00000,-24685744208244365821214720.00000,0.29465,-0.06534,-0.56323,-0.96390,100.42062,0.32604,0.63993,-0.00757,-0.00464,0.76838,0.00000,0.00000,0.00000,0.00000,1,0,
07.02 17:06:16:240,408,-0.04506,-0.19923,9.89047,-0.00000,0.00000,-24685744208244365821214720.00000,0.29317,-0.06582,-0.56424,-0.96353,100.43745,0.32667,0.63981,-0.00757,-0.00464,0.76848,0.00000,0.00000,0.00000,0.00000,1,0,
07.02 17:06:16:250,409,-0.06774,-0.14110,9.77357,-0.00000,0.00000,-24685744208244365821214720.00000,0.29318,-0.06377,-0.56672,-0.96289,100.46047,0.32759,0.63966,-0.00757,-0.00463,0.76861,0.00000,0.00000,0.00000,0.00000,1,0,
07.02 17:06:16:260,410,-0.07682,-0.15901,9.88407,-0.00000,0.00000,-24685744208244365821214720.00000,0.29366,-0.06433,-0.56373,-0.96254,100.46915,0.32894,0.63960,-0.00758,-0.00462,0.76865,0.00000,0.00000,0.00000,0.00000,1,0,
07.02 17:06:16:270,411,-0.04415,-0.15470,9.77857,-0.00000,0.00000,-24685744208244365821214720.00000,0.29564,-0.06733,-0.56323,-0.96277,100.47475,0.32870,0.63956,-0.00758,-0.00462,0.76869,0.00000,0.00000,0.00000,0.00000,1,0,
07.02 17:06:16:282,412,-0.04146,-0.18968,9.87494,-0.00000,0.00000,-24685744208244365821214720.00000,0.29664,-0.06282,-0.56370,-0.96362,100.47292,0.32920,0.63958,-0.00759,-0.00463,0.76868,0.00000,0.00000,0.00000,0.00000,1,0,
07.02 17:06:16:292,413,-0.04121,-0.15287,9.78949,-0.00000,0.00000,-24685744208244365821214720.00000,0.29368,-0.06376,-0.56721,-0.96407,100.46591,0.32833,0.63962,-0.00758,-0.00463,0.76864,0.00000,0.00000,0.00000,0.00000,1,0,
07.02 17:06:16:302,414,-0.04229,-0.20001,9.86111,-0.00000,0.00000,-24685744208244365821214720.00000,0.29616,-0.06526,-0.56670,-0.96327,100.47607,0.32811,0.63956,-0.00758,-0.00463,0.76869,0.00000,0.00000,0.00000,0.00000,1,0,
07.02 17:06:16:312,415,-0.06891,-0.14378,9.79347,-0.00000,0.00000,-24685744208244365821214720.00000,0.29316,-0.06286,-0.56224,-0.96285,100.47672,0.32828,0.63955,-0.00758,-0.00463,0.76870,0.00000,0.00000,0.00000,0.00000,1,0,
07.02 17:06:16:322,416,-0.07606,-0.17374,9.84864,-0.00000,0.00000,-24685744208244365821214720.00000,0.29466,-0.06382,-0.56422,-0.96267,100.48000,0.32879,0.63953,-0.00758,-0.00462,0.76872,0.00000,0.00000,0.00000,0.00000,1,0,
07.02 17:06:16:331,417,-0.06014,-0.14700,9.82905,-0.00000,0.00000,-24685744208244365821214720.00000,0.29714,-0.06480,-0.56470,-0.96258,100.48032,0.32823,0.63953,-0.00757,-0.00463,0.76872,0.00000,0.00000,0.00000,0.00000,1,0,
07.02 17:06:16:341,418,-0.05315,-0.17036,9.84020,-0.00000,0.00000,-24685744208244365821214720.00000,0.29664,-0.06632,-0.56371,-0.96294,100.46632,0.32853,0.63962,-0.00758,-0.00463,0.76864,0.00000,0.00000,0.00000,0.00000,1,0,
07.02 17:06:16:351,419,-0.05858,-0.17516,9.82502,-0.00000,0.00000,-24685744208244365821214720.00000,0.29416,-0.06332,-0.56422,-0.96354,100.49377,0.32916,0.63944,-0.00759,-0.00463,0.76879,0.00000,0.00000,0.00000,0.00000,1,0,
07.02 17:06:16:361,420,-0.05556,-0.17537,9.82578,-0.00000,0.00000,-24685744208244365821214720.00000,0.29565,-0.06430,-0.56521,-0.96296,100.49658,0.32837,0.63942,-0.00758,-0.00463,0.76881,0.00000,0.00000,0.00000,0.00000,1,0,
07.02 17:06:16:371,421,-0.04909,-0.15757,9.84521,-0.00000,0.00000,-24685744208244365821214720.00000,0.29366,-0.06533,-0.56373,-0.96243,100.50220,0.32814,0.63938,-0.00757,-0.00463,0.76884,0.00000,0.00000,0.00000,0.00000,1,0,
07.02 17:06:16:381,422,-0.06723,-0.18471,9.82478,-0.00000,0.00000,-24685744208244365821214720.00000,0.29267,-0.06534,-0.56324,-0.96278,100.49603,0.32879,0.63942,-0.00758,-0.00462,0.76880,0.00000,0.00000,0.00000,0.00000,1,0,
07.02 17:06:16:391,423,-0.04298,-0.18436,9.82514,-0.00000,0.00000,-24685744208244365821214720.00000,0.29516,-0.06479,-0.56571,-0.96274,100.48254,0.32963,0.63951,-0.00758,-0.00462,0.76873,0.00000,0.00000,0.00000,0.00000,1,0,
07.02 17:06:16:401,424,-0.04885,-0.14156,9.83186,-0.00000,0.00000,-24685744208244365821214720.00000,0.29268,-0.06629,-0.56574,-0.96109,100.48426,0.32993,0.63950,-0.00758,-0.00461,0.76874,0.00000,0.00000,0.00000,0.00000,1,0,
07.02 17:06:16:410,425,-0.07047,-0.15397,9.82232,-0.00000,0.00000,-24685744208244365821214720.00000,0.29516,-0.06430,-0.56521,-0.96040,100.48754,0.32976,0.63948,-0.00757,-0.00460,0.76876,0.00000,0.00000,0.00000,0.00000,1,0,
07.02 17:06:16:420,426,-0.05675,-0.16208,9.82781,-0.00000,0.00000,-24685744208244365821214720.00000,0.29466,-0.06430,-0.56522,-0.96181,100.48821,0.33032,0.63947,-0.00758,-0.00461,0.76876,0.00000,0.00000,0.00000,0.00000,1,0,
07.02 17:06:16:432,427,-0.05120,-0.17061,9.82661,-0.00000,0.00000,-24685744208244365821214720.00000,0.29267,-0.06433,-0.56374,-0.96230,100.48803,0.32915,0.63948,-0.00758,-0.00462,0.76876,0.00000,0.00000,0.00000,0.00000,1,0,
07.02 17:06:16:442,428,-0.05813,-0.18867,9.83150,-0.00000,0.00000,-24685744208244365821214720.00000,0.29417,-0.06379,-0.56572,-0.96237,100.48176,0.32975,0.63952,-0.00758,-0.00462,0.76873,0.00000,0.00000,0.00000,0.00000,1,0,
07.02 17:06:16:451,429,-0.04060,-0.17321,9.81973,-0.00000,0.00000,-24685744208244365821214720.00000,0.29367,-0.06380,-0.56522,-0.96213,100.47944,0.33060,0.63953,-0.00759,-0.00461,0.76871,0.00000,0.00000,0.00000,0.00000,1,0,
07.02 17:06:16:461,430,-0.05197,-0.16204,9.83980,-0.00000,0.00000,-24685744208244365821214720.00000,0.29615,-0.06479,-0.56521,-0.96243,100.47552,0.33040,0.63956,-0.00759,-0.00461,0.76869,0.00000,0.00000,0.00000,0.00000,1,0,
07.02 17:06:16:470,431,-0.05685,-0.14366,9.82585,-0.00000,0.00000,-24685744208244365821214720.00000,0.29516,-0.06579,-0.56522,-0.96287,100.46667,0.32974,0.63962,-0.00759,-0.00462,0.76864,0.00000,0.00000,0.00000,0.00000,1,0,
07.02 17:06:16:481,432,-0.04992,-0.16756,9.84178,-0.00000,0.00000,-24685744208244365821214720.00000,0.29167,-0.06336,-0.56275,-0.96242,100.47427,0.32999,0.63957,-0.00759,-0.00461,0.76868,0.00000,0.00000,0.00000,0.00000,1,0,
07.02 17:06:16:491,433,-0.05437,-0.17445,9.82006,-0.00000,0.00000,-24685744208244365821214720.00000,0.29565,-0.06230,-0.56520,-0.96112,100.48007,0.33146,0.63953,-0.00759,-0.00460,0.76872,0.00000,0.00000,0.00000,0.00000,1,0,
07.02 17:06:16:501,434,-0.04178,-0.18358,9.82943,-0.00000,0.00000,-24685744208244365821214720.00000,0.29466,-0.06482,-0.56422,-0.96005,100.47889,0.33082,0.63954,-0.00758,-0.00459,0.76871,0.00000,0.00000,0.00000,0.00000,1,0,
07.02 17:06:16:511,435,-0.04962,-0.16245,9.82127,-0.00000,0.00000,-24685744208244365821214720.00000,0.29317,-0.06380,-0.56523,-0.96061,100.48109,0.32982,0.63952,-0.00757,-0.00460,0.76872,0.00000,0.00000,0.00000,0.00000,1,0,
07.02 17:06:16:521,436,-0.05615,-0.18079,9.83630,-0.00000,0.00000,-24685744208244365821214720.00000,0.29366,-0.06484,-0.56324,-0.95988,100.47881,0.32946,0.63954,-0.00757,-0.00460,0.76871,0.00000,0.00000,0.00000,0.00000,1,0,
07.02 17:06:16:531,437,-0.05670,-0.16989,9.82678,-0.00000,0.00000,-24685744208244365821214720.00000,0.29466,-0.06532,-0.56422,-0.95949,100.47571,0.32965,0.63956,-0.00757,-0.00460,0.76869,0.00000,0.00000,0.00000,0.00000,1,0,
07.02 17:06:16:542,438,-0.05000,-0.16354,9.82921,-0.00000,0.00000,-24685744208244365821214720.00000,0.29515,-0.06532,-0.56422,-0.95842,100.47376,0.32950,0.63957,-0.00756,-0.00459,0.76868,0.00000,0.00000,0.00000,0.00000,1,0,
07.02 17:06:16:551,439,-0.06237,-0.16406,9.82282,-0.00000,0.00000,-24685744208244365821214720.00000,0.29317,-0.06380,-0.56523,-0.95818,100.47690,0.33013,0.63955,-0.00756,-0.00459,0.76870,0.00000,0.00000,0.00000,0.00000,1,0,
07.02 17:06:16:561,440,-0.05303,-0.16945,9.82895,-0.00000,0.00000,-24685744208244365821214720.00000,0.29417,-0.06577,-0.56672,-0.95888,100.46463,0.32914,0.63963,-0.00756,-0.00459,0.76863,0.00000,0.00000,0.00000,0.00000,1,0,
07.02 17:06:16:571,441,-0.03155,-0.16638,9.84020,-0.00000,0.00000,-24685744208244365821214720.00000,0.29714,-0.06531,-0.56420,-0.95865,100.45876,0.32887,0.63967,-0.00756,-0.00459,0.76860,0.00000,0.00000,0.00000,0.00000,1,0,
07.02 17:06:16:582,442,-0.04579,-0.17115,9.81784,-0.00000,0.00000,-24685744208244365821214720.00000,0.29466,-0.06382,-0.56422,-0.95823,100.45739,0.32848,0.63968,-0.00755,-0.00459,0.76859,0.00000,0.00000,0.00000,0.00000,1,0,
07.02 17:06:16:592,443,-0.06086,-0.17694,9.82793,-0.00000,0.00000,-24685744208244365821214720.00000,0.29316,-0.06384,-0.56324,-0.95762,100.45538,0.32818,0.63969,-0.00755,-0.00459,0.76858,0.00000,0.00000,0.00000,0.00000,1,0,
07.02 17:06:16:602,444,-0.03296,-0.16898,9.82557,-0.00000,0.00000,-24685744208244365821214720.00000,0.29316,-0.06585,-0.56275,-0.95707,100.45197,0.32897,0.63972,-0.00755,-0.00458,0.76856,0.00000,0.00000,0.00000,0.00000,1,0,
07.02 17:06:16:611,445,-0.04178,-0.17785,9.82831,-0.00000,0.00000,-24685744208244365821214720.00000,0.29367,-0.06481,-0.56473,-0.95679,100.46896,0.32944,0.63960,-0.00755,-0.00458,0.76865,0.00000,0.00000,0.00000,0.00000,1,0,
07.02 17:06:16:621,446,-0.06088,-0.15174,9.82216,-0.00000,0.00000,-24685744208244365821214720.00000,0.29367,-0.06680,-0.56523,-0.95621,100.46159,0.33025,0.63965,-0.00755,-0.00457,0.76861,0.00000,0.00000,0.00000,0.00000,1,0,
07.02 17:06:16:630,447,-0.06641,-0.15317,9.81784,-0.00000,0.00000,-24685744208244365821214720.00000,0.29416,-0.06480,-0.56522,-0.95690,100.47814,0.33129,0.63954,-0.00756,-0.00457,0.76871,0.00000,0.00000,0.00000,0.00000,1,0,
07.02 17:06:16:640,448,-0.04576,-0.16183,9.79903,-0.00000,0.00000,-24685744208244365821214720.00000,0.29614,-0.06381,-0.56421,-0.95698,100.48381,0.33106,0.63950,-0.00756,-0.00457,0.76874,0.00000,0.00000,0.00000,0.00000,1,0,
07.02 17:06:16:651,449,-0.04226,-0.17078,9.81760,-0.00000,0.00000,-24685744208244365821214720.00000,0.29615,-0.06528,-0.56571,-0.95666,100.49953,0.33173,0.63940,-0.00756,-0.00457,0.76882,0.00000,0.00000,0.00000,0.00000,1,0,
07.02 17:06:16:662,450,-0.03433,-0.15054,9.83720,-0.00000,0.00000,-24685744208244365821214720.00000,0.29269,-0.06426,-0.56722,-0.95697,100.49895,0.33236,0.63940,-0.00757,-0.00457,0.76882,0.00000,0.00000,0.00000,0.00000,1,0,
07.02 17:06:16:672,451,-0.06764,-0.17643,9.82833,-0.00000,0.00000,-24685744208244365821214720.00000,0.29415,-0.06284,-0.56322,-0.95734,100.51305,0.33280,0.63931,-0.00757,-0.00457,0.76890,0.00000,0.00000,0.00000,0.00000,1,0,
07.02 17:06:16:682,452,-0.05343,-0.16877,9.83455,-0.00000,0.00000,-24685744208244365821214720.00000,0.29416,-0.06432,-0.56422,-0.95706,100.50413,0.33343,0.63937,-0.00758,-0.00456,0.76885,0.00000,0.00000,0.00000,0.00000,1,0,
07.02 17:06:16:691,453,-0.07593,-0.17658,9.83727,-0.00000,0.00000,-24685744208244365821214720.00000,0.29516,-0.06329,-0.56571,-0.95804,100.50349,0.33330,0.63937,-0.00758,-0.00457,0.76885,0.00000,0.00000,0.00000,0.00000,1,0,
07.02 17:06:16:702,454,-0.06853,-0.17242,9.83100,-0.00000,0.00000,-24685744208244365821214720.00000,0.29565,-0.06532,-0.56372,-0.95889,100.52094,0.33423,0.63925,-0.00759,-0.00457,0.76894,0.00000,0.00000,0.00000,0.00000,1,0,
07.02 17:06:16:711,455,-0.06956,-0.17241,9.82356,-0.00000,0.00000,-24685744208244365821214720.00000,0.29466,-0.06629,-0.56572,-0.95875,100.51535,0.33329,0.63929,-0.00759,-0.00457,0.76891,0.00000,0.00000,0.00000,0.00000,1,0,
07.02 17:06:16:721,456,-0.06994,-0.17208,9.83389,-0.00000,0.00000,-24685744208244365821214720.00000,0.29318,-0.06227,-0.56671,-0.95868,100.50965,0.33238,0.63933,-0.00758,-0.00458,0.76888,0.00000,0.00000,0.00000,0.00000,1,0,
07.02 17:06:16:732,457,-0.04887,-0.17022,9.83498,-0.00000,0.00000,-24685744208244365821214720.00000,0.29515,-0.06284,-0.56322,-0.95936,100.51411,0.33239,0.63930,-0.00758,-0.00458,0.76891,0.00000,0.00000,0.00000,0.00000,1,0,
07.02 17:06:16:742,458,-0.05035,-0.17379,9.81808,-0.00000,0.00000,-24685744208244365821214720.00000,0.29415,-0.06684,-0.56324,-0.95934,100.52364,0.33243,0.63924,-0.00758,-0.00458,0.76896,0.00000,0.00000,0.00000,0.00000,1,0,
07.02 17:06:16:751,459,-0.04815,-0.16569,9.83651,-0.00000,0.00000,-24685744208244365821214720.00000,0.29514,-0.06336,-0.56222,-0.95861,100.50314,0.33162,0.63937,-0.00757,-0.00458,0.76884,0.00000,0.00000,0.00000,0.00000,1,0,
07.02 17:06:16:762,460,-0.05436,-0.14911,9.82745,-0.00000,0.00000,-24685744208244365821214720.00000,0.29416,-0.06430,-0.56522,-0.95799,100.50471,0.33188,0.63936,-0.00757,-0.00458,0.76885,0.00000,0.00000,0.00000,0.00000,1,0,
07.02 17:06:16:770,461,-0.05827,-0.17540,9.85253,-0.00000,0.00000,-24685744208244365821214720.00000,0.29317,-0.06531,-0.56473,-0.95772,100.50591,0.33233,0.63936,-0.00757,-0.00457,0.76886,0.00000,0.00000,0.00000,0.00000,1,0,
07.02 17:06:16:781,462,-0.06097,-0.17189,9.81567,-0.00000,0.00000,-24685744208244365821214720.00000,0.29367,-0.06528,-0.56622,-0.95677,100.49451,0.33265,0.63943,-0.00757,-0.00456,0.76880,0.00000,0.00000,0.00000,0.00000,1,0,
07.02 17:06:16:791,463,-0.07068,-0.17300,9.85568,-0.00000,0.00000,-24685744208244365821214720.00000,0.29267,-0.06481,-0.56474,-0.95681,100.49718,0.33268,0.63941,-0.00757,-0.00456,0.76881,0.00000,0.00000,0.00000,0.00000,1,0,
07.02 17:06:16:801,464,-0.04841,-0.16326,9.81925,-0.00000,0.00000,-24685744208244365821214720.00000,0.29416,-0.06482,-0.56423,-0.95635,100.48943,0.33442,0.63947,-0.00758,-0.00455,0.76877,0.00000,0.00000,0.00000,0.00000,1,0,
07.02 17:06:16:813,465,-0.07064,-0.15796,9.85584,-0.00000,0.00000,-24685744208244365821214720.00000,0.29268,-0.06429,-0.56573,-0.95589,100.48917,0.33427,0.63947,-0.00758,-0.00455,0.76877,0.00000,0.00000,0.00000,0.00000,1,0,
07.02 17:06:16:822,466,-0.05043,-0.16428,9.83064,-0.00000,0.00000,-24685744208244365821214720.00000,0.29365,-0.06338,-0.56124,-0.95520,100.49557,0.33371,0.63943,-0.00757,-0.00455,0.76880,0.00000,0.00000,0.00000,0.00000,1,0,
07.02 17:06:16:832,467,-0.05574,-0.17337,9.83141,-0.00000,0.00000,-24685744208244365821214720.00000,0.29317,-0.06332,-0.56423,-0.95555,100.50470,0.33450,0.63936,-0.00758,-0.00454,0.76885,0.00000,0.00000,0.00000,0.00000,1,0,
07.02 17:06:16:841,468,-0.06390,-0.15745,9.81939,-0.00000,0.00000,-24685744208244365821214720.00000,0.29465,-0.06434,-0.56323,-0.95505,100.50871,0.33522,0.63934,-0.00758,-0.00454,0.76888,0.00000,0.00000,0.00000,0.00000,1,0,
07.02 17:06:16:851,469,-0.07279,-0.16804,9.83072,-0.00000,0.00000,-24685744208244365821214720.00000,0.29466,-0.06480,-0.56522,-0.95477,100.50095,0.33451,0.63939,-0.00757,-0.00454,0.76883,0.00000,0.00000,0.00000,0.00000,1,0,
07.02 17:06:16:860,470,-0.05130,-0.16704,9.82712,-0.00000,0.00000,-24685744208244365821214720.00000,0.29366,-0.06433,-0.56373,-0.95395,100.50156,0.33552,0.63938,-0.00757,-0.00453,0.76884,0.00000,0.00000,0.00000,0.00000,1,0,
07.02 17:06:16:872,471,-0.06466,-0.16561,9.84788,-0.00000,0.00000,-24685744208244365821214720.00000,0.29368,-0.06526,-0.56722,-0.95426,100.50382,0.33615,0.63937,-0.00758,-0.00453,0.76885,0.00000,0.00000,0.00000,0.00000,1,0,
07.02 17:06:16:881,472,-0.06395,-0.15685,9.82499,-0.00000,0.00000,-24685744208244365821214720.00000,0.29367,-0.06480,-0.56523,-0.95383,100.49622,0.33586,0.63942,-0.00758,-0.00453,0.76881,0.00000,0.00000,0.00000,0.00000,1,0,
07.02 17:06:16:892,473,-0.04921,-0.16084,9.82025,-0.00000,0.00000,-24685744208244365821214720.00000,0.29565,-0.06282,-0.56421,-0.95410,100.49967,0.33480,0.63940,-0.00757,-0.00453,0.76883,0.00000,0.00000,0.00000,0.00000,1,0,
07.02 17:06:16:901,474,-0.03921,-0.17941,9.82540,-0.00000,0.00000,-24685744208244365821214720.00000,0.29516,-0.06479,-0.56571,-0.95476,100.49502,0.33454,0.63943,-0.00757,-0.00454,0.76880,0.00000,0.00000,0.00000,0.00000,1,0,
07.02 17:06:16:911,475,-0.05944,-0.18881,9.83017,-0.00000,0.00000,-24685744208244365821214720.00000,0.29269,-0.06476,-0.56722,-0.95487,100.49584,0.33478,0.63942,-0.00757,-0.00454,0.76880,0.00000,0.00000,0.00000,0.00000,1,0,
07.02 17:06:16:920,476,-0.06184,-0.17359,9.83131,-0.00000,0.00000,-24685744208244365821214720.00000,0.29317,-0.06281,-0.56473,-0.95494,100.48504,0.33514,0.63950,-0.00758,-0.00454,0.76874,0.00000,0.00000,0.00000,0.00000,1,0,
07.02 17:06:16:931,477,-0.06435,-0.17980,9.81338,-0.00000,0.00000,-24685744208244365821214720.00000,0.29466,-0.06579,-0.56572,-0.95616,100.49137,0.33498,0.63945,-0.00758,-0.00455,0.76878,0.00000,0.00000,0.00000,0.00000,1,0,
07.02 17:06:16:941,478,-0.05010,-0.15895,9.83181,-0.00000,0.00000,-24685744208244365821214720.00000,0.29516,-0.06377,-0.56670,-0.95516,100.47630,0.33474,0.63955,-0.00758,-0.00454,0.76870,0.00000,0.00000,0.00000,0.00000,1,0,
07.02 17:06:16:951,479,-0.05447,-0.15858,9.84049,-0.00000,0.00000,-24685744208244365821214720.00000,0.29416,-0.06582,-0.56423,-0.95466,100.47425,0.33472,0.63957,-0.00757,-0.00454,0.76868,0.00000,0.00000,0.00000,0.00000,1,0,
07.02 17:06:16:963,480,-0.05279,-0.17084,9.83293,-0.00000,0.00000,-24685744208244365821214720.00000,0.29516,-0.06377,-0.56670,-0.95312,100.47414,0.33439,0.63957,-0.00756,-0.00453,0.76868,0.00000,0.00000,0.00000,0.00000,1,0,
07.02 17:06:16:972,481,-0.05276,-0.18123,9.84304,-0.00000,0.00000,-24685744208244365821214720.00000,0.29616,-0.06277,-0.56669,-0.95278,100.47321,0.33417,0.63958,-0.00756,-0.00453,0.76868,0.00000,0.00000,0.00000,0.00000,1,0,
07.02 17:06:16:983,482,-0.06295,-0.15879,9.81577,-0.00000,0.00000,-24685744208244365821214720.00000,0.29465,-0.06334,-0.56322,-0.95200,100.46970,0.33338,0.63960,-0.00755,-0.00452,0.76866,0.00000,0.00000,0.00000,0.00000,1,0,
07.02 17:06:16:991,483,-0.06298,-0.15399,9.83074,-0.00000,0.00000,-24685744208244365821214720.00000,0.29466,-0.06481,-0.56472,-0.95057,100.47468,0.33328,0.63957,-0.00754,-0.00452,0.76869,0.00000,0.00000,0.00000,0.00000,1,0,
07.02 17:06:17:002,484,-0.06170,-0.15898,9.81453,-0.00000,0.00000,-24685744208244365821214720.00000,0.29415,-0.06586,-0.56224,-0.95038,100.46786,0.33355,0.63961,-0.00754,-0.00451,0.76865,0.00000,0.00000,0.00000,0.00000,1,0,
07.02 17:06:17:012,485,-0.04861,-0.16628,9.83277,-0.00000,0.00000,-24685744208244365821214720.00000,0.29368,-0.06375,-0.56771,-0.95085,100.45752,0.33335,0.63968,-0.00754,-0.00452,0.76859,0.00000,0.00000,0.00000,0.00000,1,0,
07.02 17:06:17:022,486,-0.04967,-0.15639,9.81610,-0.00000,0.00000,-24685744208244365821214720.00000,0.29417,-0.06427,-0.56671,-0.95137,100.46179,0.33383,0.63965,-0.00755,-0.00452,0.76861,0.00000,0.00000,0.00000,0.00000,1,0,
07.02 17:06:17:032,487,-0.05046,-0.18234,9.83871,-0.00000,0.00000,-24685744208244365821214720.00000,0.29416,-0.06530,-0.56522,-0.95150,100.46625,0.33417,0.63962,-0.00755,-0.00452,0.76864,0.00000,0.00000,0.00000,0.00000,1,0,
07.02 17:06:17:043,488,-0.03786,-0.17884,9.82149,-0.00000,0.00000,-24685744208244365821214720.00000,0.29367,-0.06631,-0.56473,-0.95127,100.46604,0.33486,0.63962,-0.00756,-0.00451,0.76864,0.00000,0.00000,0.00000,0.00000,1,0,
07.02 17:06:17:052,489,-0.06152,-0.16988,9.82633,-0.00000,0.00000,-24685744208244365821214720.00000,0.29464,-0.06386,-0.56223,-0.95063,100.47112,0.33600,0.63959,-0.00756,-0.00450,0.76867,0.00000,0.00000,0.00000,0.00000,1,0,
07.02 17:06:17:060,490,-0.07329,-0.18516,9.84500,-0.00000,0.00000,-24685744208244365821214720.00000,0.29416,-0.06031,-0.56471,-0.95114,100.46719,0.33679,0.63962,-0.00757,-0.00450,0.76864,0.00000,0.00000,0.00000,0.00000,1,0,
07.02 17:06:17:071,491,-0.07145,-0.16240,9.83629,-0.00000,0.00000,-24685744208244365821214720.00000,0.29217,-0.06533,-0.56375,-0.95098,100.47552,0.33735,0.63956,-0.00757,-0.00450,0.76869,0.00000,0.00000,0.00000,0.00000,1,0,
07.02 17:06:17:082,492,-0.06433,-0.16226,9.82483,-0.00000,0.00000,-24685744208244365821214720.00000,0.29417,-0.06729,-0.56573,-0.94938,100.48701,0.33800,0.63948,-0.00757,-0.00448,0.76876,0.00000,0.00000,0.00000,0.00000,1,0,
07.02 17:06:17:091,493,-0.06259,-0.15433,9.81667,-0.00000,0.00000,-24685744208244365821214720.00000,0.29466,-0.06382,-0.56422,-0.94988,100.46814,0.33770,0.63961,-0.00757,-0.00449,0.76865,0.00000,0.00000,0.00000,0.00000,1,0,
07.02 17:06:17:100,494,-0.06216,-0.16133,9.83768,-0.00000,0.00000,-24685744208244365821214720.00000,0.29366,-0.06484,-0.56324,-0.94929,100.46815,0.33735,0.63961,-0.00756,-0.00448,0.76865,0.00000,0.00000,0.00000,0.00000,1,0,
07.02 17:06:17:112,495,-0.05356,-0.15627,9.84354,-0.00000,0.00000,-24685744208244365821214720.00000,0.29317,-0.06430,-0.56523,-0.94858,100.47058,0.33804,0.63959,-0.00756,-0.00448,0.76866,0.00000,0.00000,0.00000,0.00000,1,0,
07.02 17:06:17:122,496,-0.04704,-0.17607,9.83007,-0.00000,0.00000,-24685744208244365821214720.00000,0.29416,-0.06281,-0.56472,-0.94748,100.46794,0.33814,0.63961,-0.00756,-0.00447,0.76865,0.00000,0.00000,0.00000,0.00000,1,0,
07.02 17:06:17:132,497,-0.05819,-0.15967,9.81200,-0.00000,0.00000,-24685744208244365821214720.00000,0.29467,-0.06278,-0.56621,-0.94727,100.46988,0.33872,0.63960,-0.00756,-0.00446,0.76866,0.00000,0.00000,0.00000,0.00000,1,0,
07.02 17:06:17:141,498,-0.07116,-0.15780,9.83439,-0.00000,0.00000,-24685744208244365821214720.00000,0.29417,-0.06377,-0.56671,-0.94774,100.45876,0.33821,0.63967,-0.00756,-0.00447,0.76860,0.00000,0.00000,0.00000,0.00000,1,0,
07.02 17:06:17:152,499,-0.04357,-0.18335,9.82294,-0.00000,0.00000,-24685744208244365821214720.00000,0.29416,-0.06431,-0.56472,-0.94859,100.45273,0.33764,0.63971,-0.00756,-0.00448,0.76856,0.00000,0.00000,0.00000,0.00000,1,0,
07.02 17:06:17:161,500,-0.06096,-0.14769,9.83305,-0.00000,0.00000,-24685744208244365821214720.00000,0.29515,-0.06381,-0.56471,-0.94781,100.45190,0.33787,0.63972,-0.00756,-0.00447,0.76856,0.00000,0.00000,0.00000,0.00000,1,0,
07.02 17:06:17:171,501,-0.06433,-0.17769,9.83405,-0.00000,0.00000,-24685744208244365821214720.00000,0.29317,-0.06481,-0.56473,-0.94708,100.45747,0.33818,0.63968,-0.00756,-0.00446,0.76859,0.00000,0.00000,0.00000,0.00000,1,0,
07.02 17:06:17:182,502,-0.07173,-0.15230,9.82335,-0.00000,0.00000,-24685744208244365821214720.00000,0.29316,-0.06634,-0.56324,-0.94676,100.46320,0.33757,0.63964,-0.00755,-0.00447,0.76862,0.00000,0.00000,0.00000,0.00000,1,0,
07.02 17:06:17:192,503,-0.04876,-0.17280,9.80192,-0.00000,0.00000,-24685744208244365821214720.00000,0.29713,-0.06483,-0.56321,-0.94614,100.47753,0.33707,0.63955,-0.00754,-0.00447,0.76870,0.00000,0.00000,0.00000,0.00000,1,0,
07.02 17:06:17:201,504,-0.06931,-0.17312,9.84445,-0.00000,0.00000,-24685744208244365821214720.00000,0.29614,-0.06481,-0.56421,-0.94523,100.47887,0.33737,0.63954,-0.00754,-0.00446,0.76871,0.00000,0.00000,0.00000,0.00000,1,0,
07.02 17:06:17:213,505,-0.05320,-0.17469,9.85434,-0.00000,0.00000,-24685744208244365821214720.00000,0.29517,-0.06276,-0.56720,-0.94508,100.47059,0.33684,0.63959,-0.00753,-0.00446,0.76866,0.00000,0.00000,0.00000,0.00000,1,0,
07.02 17:06:17:221,506,-0.07041,-0.12087,9.80370,-0.00000,0.00000,-24685744208244365821214720.00000,0.29515,-0.06483,-0.56372,-0.94529,100.45693,0.33817,0.63968,-0.00755,-0.00445,0.76859,0.00000,0.00000,0.00000,0.00000,1,0,
07.02 17:06:17:230,507,-0.07219,-0.18315,9.86452,-0.00000,0.00000,-24685744208244365821214720.00000,0.29515,-0.06382,-0.56421,-0.94540,100.45644,0.33836,0.63969,-0.00755,-0.00445,0.76858,0.00000,0.00000,0.00000,0.00000,1,0,
07.02 17:06:17:240,508,-0.04887,-0.15475,9.79140,-0.00000,0.00000,-24685744208244365821214720.00000,0.29566,-0.06528,-0.56571,-0.94634,100.45734,0.33773,0.63968,-0.00755,-0.00446,0.76859,0.00000,0.00000,0.00000,0.00000,1,0,
07.02 17:06:17:250,509,-0.05669,-0.18110,9.86271,-0.00000,0.00000,-24685744208244365821214720.00000,0.29466,-0.06280,-0.56521,-0.94731,100.45776,0.33720,0.63968,-0.00755,-0.00447,0.76859,0.00000,0.00000,0.00000,0.00000,1,0,
07.02 17:06:17:262,510,-0.04308,-0.16067,9.78868,-0.00000,0.00000,-24685744208244365821214720.00000,0.29368,-0.06577,-0.56672,-0.94808,100.46874,0.33721,0.63961,-0.00755,-0.00448,0.76865,0.00000,0.00000,0.00000,0.00000,1,0,
07.02 17:06:17:273,511,-0.05516,-0.18319,9.83935,-0.00000,0.00000,-24685744208244365821214720.00000,0.29365,-0.06385,-0.56273,-0.94810,100.45884,0.33726,0.63967,-0.00755,-0.00448,0.76860,0.00000,0.00000,0.00000,0.00000,1,0,
07.02 17:06:17:283,512,-0.02979,-0.17567,9.78878,-0.00000,0.00000,-24685744208244365821214720.00000,0.29367,-0.06530,-0.56523,-0.94856,100.45895,0.33684,0.63967,-0.00755,-0.00448,0.76860,0.00000,0.00000,0.00000,0.00000,1,0,
07.02 17:06:17:293,513,-0.05631,-0.20116,9.85008,-0.00000,0.00000,-24685744208244365821214720.00000,0.29566,-0.06478,-0.56571,-0.94790,100.46457,0.33762,0.63963,-0.00756,-0.00447,0.76863,0.00000,0.00000,0.00000,0.00000,1,0,
07.02 17:06:17:302,514,-0.05576,-0.15918,9.80206,-0.00000,0.00000,-24685744208244365821214720.00000,0.29367,-0.06381,-0.56472,-0.94736,100.46605,0.33791,0.63962,-0.00755,-0.00447,0.76864,0.00000,0.00000,0.00000,0.00000,1,0,
07.02 17:06:17:311,515,-0.06532,-0.15912,9.85989,-0.00000,0.00000,-24685744208244365821214720.00000,0.29367,-0.06378,-0.56622,-0.94698,100.46049,0.33874,0.63966,-0.00756,-0.00446,0.76861,0.00000,0.00000,0.00000,0.00000,1,0,
07.02 17:06:17:323,516,-0.06721,-0.14376,9.82182,-0.00000,0.00000,-24685744208244365821214720.00000,0.29714,-0.06531,-0.56420,-0.94583,100.45888,0.33764,0.63967,-0.00754,-0.00446,0.76860,0.00000,0.00000,0.00000,0.00000,1,0,
07.02 17:06:17:332,517,-0.07502,-0.15686,9.80740,-0.00000,0.00000,-24685744208244365821214720.00000,0.29367,-0.06379,-0.56572,-0.94465,100.46632,0.33844,0.63962,-0.00754,-0.00445,0.76864,0.00000,0.00000,0.00000,0.00000,1,0,
07.02 17:06:17:342,518,-0.05254,-0.17878,9.85749,-0.00000,0.00000,-24685744208244365821214720.00000,0.29415,-0.06285,-0.56273,-0.94679,100.47541,0.33749,0.63956,-0.00755,-0.00447,0.76869,0.00000,0.00000,0.00000,0.00000,1,0,
07.02 17:06:17:352,519,-0.01765,-0.14981,9.80521,-0.00000,0.00000,-24685744208244365821214720.00000,0.29564,-0.06333,-0.56371,-0.94653,100.49522,0.33668,0.63943,-0.00754,-0.00447,0.76880,0.00000,0.00000,0.00000,0.00000,1,0,
07.02 17:06:17:361,520,-0.05595,-0.17650,9.84760,-0.00000,0.00000,-24685744208244365821214720.00000,0.29366,-0.06283,-0.56373,-0.94641,100.48322,0.33847,0.63951,-0.00755,-0.00446,0.76873,0.00000,0.00000,0.00000,0.00000,1,0,
07.02 17:06:17:371,521,-0.06461,-0.16101,9.80473,-0.00000,0.00000,-24685744208244365821214720.00000,0.29614,-0.06732,-0.56372,-0.94558,100.48227,0.33895,0.63951,-0.00755,-0.00445,0.76873,0.00000,0.00000,0.00000,0.00000,1,0,
07.02 17:06:17:381,522,-0.07609,-0.16738,9.84023,-0.00000,0.00000,-24685744208244365821214720.00000,0.29367,-0.06330,-0.56522,-0.94528,100.51085,0.33858,0.63932,-0.00755,-0.00445,0.76889,0.00000,0.00000,0.00000,0.00000,1,0,
07.02 17:06:17:391,523,-0.08414,-0.17358,9.81212,-0.00000,0.00000,-24685744208244365821214720.00000,0.29317,-0.06332,-0.56423,-0.94604,100.51434,0.33932,0.63930,-0.00755,-0.00445,0.76891,0.00000,0.00000,0.00000,0.00000,1,0,
07.02 17:06:17:400,524,-0.06321,-0.19476,9.85453,-0.00000,0.00000,-24685744208244365821214720.00000,0.29416,-0.06482,-0.56423,-0.94748,100.50989,0.33907,0.63933,-0.00756,-0.00447,0.76888,0.00000,0.00000,0.00000,0.00000,1,0,
07.02 17:06:17:411,525,-0.03941,-0.18554,9.80034,-0.00000,0.00000,-24685744208244365821214720.00000,0.29366,-0.06282,-0.56422,-0.94787,100.50974,0.33754,0.63933,-0.00755,-0.00448,0.76888,0.00000,0.00000,0.00000,0.00000,1,0,
07.02 17:06:17:422,526,-0.02946,-0.15664,9.83062,-0.00000,0.00000,-24685744208244365821214720.00000,0.29515,-0.06483,-0.56372,-0.94779,100.52229,0.33801,0.63925,-0.00756,-0.00447,0.76895,0.00000,0.00000,0.00000,0.00000,1,0,
07.02 17:06:17:432,527,-0.05253,-0.15833,9.82716,-0.00000,0.00000,-24685744208244365821214720.00000,0.29465,-0.06433,-0.56372,-0.94772,100.52095,0.33833,0.63925,-0.00756,-0.00447,0.76894,0.00000,0.00000,0.00000,0.00000,1,0,
07.02 17:06:17:441,528,-0.04935,-0.16087,9.83002,-0.00000,0.00000,-24685744208244365821214720.00000,0.29366,-0.06332,-0.56422,-0.94728,100.52029,0.33964,0.63926,-0.00756,-0.00446,0.76894,0.00000,0.00000,0.00000,0.00000,1,0,
07.02 17:06:17:450,529,-0.05191,-0.12508,9.83183,-0.00000,0.00000,-24685744208244365821214720.00000,0.29615,-0.06578,-0.56571,-0.94838,100.52199,0.34047,0.63925,-0.00758,-0.00446,0.76895,0.00000,0.00000,0.00000,0.00000,1,0,
07.02 17:06:17:462,530,-0.05684,-0.13795,9.83942,-0.00000,0.00000,-24685744208244365821214720.00000,0.29466,-0.06530,-0.56522,-0.94822,100.52667,0.34093,0.63922,-0.00758,-0.00446,0.76898,0.00000,0.00000,0.00000,0.00000,1,0,
07.02 17:06:17:471,531,-0.06828,-0.15687,9.83443,-0.00000,0.00000,-24685744208244365821214720.00000,0.29515,-0.06382,-0.56421,-0.94834,100.52718,0.34054,0.63921,-0.00758,-0.00446,0.76898,0.00000,0.00000,0.00000,0.00000,1,0,
07.02 17:06:17:482,532,-0.05806,-0.17975,9.82247,-0.00000,0.00000,-24685744208244365821214720.00000,0.29119,-0.06380,-0.56574,-0.94992,100.52703,0.34066,0.63921,-0.00759,-0.00447,0.76898,0.00000,0.00000,0.00000,0.00000,1,0,
07.02 17:06:17:492,533,-0.05972,-0.19731,9.81651,-0.00000,0.00000,-24685744208244365821214720.00000,0.29416,-0.06532,-0.56423,-0.95168,100.54280,0.34029,0.63911,-0.00759,-0.00449,0.76907,0.00000,0.00000,0.00000,0.00000,1,0,
07.02 17:06:17:501,534,-0.04702,-0.18839,9.83386,-0.00000,0.00000,-24685744208244365821214720.00000,0.29614,-0.06431,-0.56421,-0.95201,100.54807,0.34005,0.63907,-0.00759,-0.00449,0.76910,0.00000,0.00000,0.00000,0.00000,1,0,
07.02 17:06:17:511,535,-0.05026,-0.17663,9.83036,-0.00000,0.00000,-24685744208244365821214720.00000,0.29218,-0.06432,-0.56474,-0.95210,100.55634,0.33993,0.63902,-0.00759,-0.00449,0.76914,0.00000,0.00000,0.00000,0.00000,1,0,
07.02 17:06:17:521,536,-0.07570,-0.17478,9.82869,-0.00000,0.00000,-24685744208244365821214720.00000,0.29466,-0.06681,-0.56473,-0.95160,100.56335,0.34074,0.63897,-0.00759,-0.00449,0.76918,0.00000,0.00000,0.00000,0.00000,1,0,
07.02 17:06:17:531,537,-0.06232,-0.16227,9.84249,-0.00000,0.00000,-24685744208244365821214720.00000,0.29268,-0.06477,-0.56673,-0.95113,100.57320,0.34135,0.63890,-0.00759,-0.00448,0.76924,0.00000,0.00000,0.00000,0.00000,1,0,
07.02 17:06:17:541,538,-0.07519,-0.18532,9.84040,-0.00000,0.00000,-24685744208244365821214720.00000,0.29368,-0.06527,-0.56672,-0.95021,100.56619,0.34118,0.63895,-0.00759,-0.00448,0.76920,0.00000,0.00000,0.00000,0.00000,1,0,
07.02 17:06:17:550,539,-0.05832,-0.17801,9.83077,-0.00000,0.00000,-24685744208244365821214720.00000,0.29615,-0.06527,-0.56620,-0.94999,100.57280,0.34089,0.63891,-0.00759,-0.00448,0.76923,0.00000,0.00000,0.00000,0.00000,1,0,
07.02 17:06:17:562,540,-0.05548,-0.17690,9.81777,-0.00000,0.00000,-24685744208244365821214720.00000,0.29217,-0.06582,-0.56425,-0.94876,100.57143,0.33860,0.63892,-0.00756,-0.00448,0.76923,0.00000,0.00000,0.00000,0.00000,1,0,
07.02 17:06:17:573,541,-0.04596,-0.16682,9.82700,-0.00000,0.00000,-24685744208244365821214720.00000,0.29514,-0.06435,-0.56272,-0.94788,100.56603,0.33783,0.63895,-0.00755,-0.00448,0.76920,0.00000,0.00000,0.00000,0.00000,1,0,
07.02 17:06:17:582,542,-0.04382,-0.14997,9.83322,-0.00000,0.00000,-24685744208244365821214720.00000,0.29169,-0.06380,-0.56574,-0.94816,100.56331,0.33672,0.63897,-0.00755,-0.00449,0.76918,0.00000,0.00000,0.00000,0.00000,1,0,
07.02 17:06:17:591,543,-0.08591,-0.15784,9.82545,-0.00000,0.00000,-24685744208244365821214720.00000,0.29416,-0.06532,-0.56423,-0.94770,100.55730,0.33743,0.63901,-0.00755,-0.00448,0.76915,0.00000,0.00000,0.00000,0.00000,1,0,
07.02 17:06:17:602,544,-0.06058,-0.15712,9.83179,-0.00000,0.00000,-24685744208244365821214720.00000,0.29317,-0.06430,-0.56523,-0.94820,100.55839,0.33789,0.63900,-0.00756,-0.00448,0.76915,0.00000,0.00000,0.00000,0.00000,1,0,
07.02 17:06:17:611,545,-0.05265,-0.17322,9.83353,-0.00000,0.00000,-24685744208244365821214720.00000,0.29218,-0.06379,-0.56623,-0.94794,100.55939,0.33813,0.63900,-0.00756,-0.00448,0.76916,0.00000,0.00000,0.00000,0.00000,1,0,
07.02 17:06:17:621,546,-0.07880,-0.18904,9.83825,-0.00000,0.00000,-24685744208244365821214720.00000,0.29366,-0.06532,-0.56423,-0.94756,100.55422,0.33901,0.63903,-0.00756,-0.00447,0.76913,0.00000,0.00000,0.00000,0.00000,1,0,
07.02 17:06:17:633,547,-0.06666,-0.19246,9.82404,-0.00000,0.00000,-24685744208244365821214720.00000,0.29416,-0.06580,-0.56523,-0.94659,100.56413,0.33939,0.63897,-0.00756,-0.00446,0.76919,0.00000,0.00000,0.00000,0.00000,1,0,
07.02 17:06:17:642,548,-0.04572,-0.16366,9.83677,-0.00000,0.00000,-24685744208244365821214720.00000,0.29515,-0.06631,-0.56422,-0.94558,100.58121,0.33923,0.63885,-0.00755,-0.00446,0.76928,0.00000,0.00000,0.00000,0.00000,1,0,
07.02 17:06:17:651,549,-0.04298,-0.14931,9.82423,-0.00000,0.00000,-24685744208244365821214720.00000,0.29515,-0.06482,-0.56422,-0.94586,100.59052,0.33949,0.63879,-0.00755,-0.00446,0.76933,0.00000,0.00000,0.00000,0.00000,1,0,
07.02 17:06:17:660,550,-0.04914,-0.17129,9.82459,-0.00000,0.00000,-24685744208244365821214720.00000,0.29268,-0.06427,-0.56672,-0.94565,100.59119,0.33950,0.63878,-0.00755,-0.00446,0.76934,0.00000,0.00000,0.00000,0.00000,1,0,
07.02 17:06:17:670,551,-0.06940,-0.14232,9.83534,-0.00000,0.00000,-24685744208244365821214720.00000,0.29465,-0.06435,-0.56273,-0.94604,100.59622,0.33917,0.63875,-0.00755,-0.00446,0.76936,0.00000,0.00000,0.00000,0.00000,1,0,
07.02 17:06:17:680,552,-0.06251,-0.16192,9.83165,-0.00000,0.00000,-24685744208244365821214720.00000,0.29516,-0.06428,-0.56621,-0.94691,100.59846,0.33936,0.63873,-0.00756,-0.00447,0.76938,0.00000,0.00000,0.00000,0.00000,1,0,
07.02 17:06:17:691,553,-0.08179,-0.16241,9.84526,-0.00000,0.00000,-24685744208244365821214720.00000,0.29367,-0.06428,-0.56622,-0.94708,100.59998,0.34028,0.63872,-0.00756,-0.00446,0.76939,0.00000,0.00000,0.00000,0.00000,1,0,
07.02 17:06:17:701,554,-0.08020,-0.17555,9.82721,-0.00000,0.00000,-24685744208244365821214720.00000,0.29466,-0.06330,-0.56521,-0.94780,100.60514,0.34067,0.63869,-0.00757,-0.00447,0.76941,0.00000,0.00000,0.00000,0.00000,1,0,
07.02 17:06:17:712,555,-0.07129,-0.19188,9.83694,-0.00000,0.00000,-24685744208244365821214720.00000,0.29615,-0.06527,-0.56620,-0.94798,100.61072,0.33994,0.63865,-0.00757,-0.00447,0.76945,0.00000,0.00000,0.00000,0.00000,1,0,
07.02 17:06:17:723,556,-0.04107,-0.19188,9.83203,-0.00000,0.00000,-24685744208244365821214720.00000,0.29416,-0.06533,-0.56373,-0.94833,100.60384,0.33833,0.63870,-0.00756,-0.00448,0.76941,0.00000,0.00000,0.00000,0.00000,1,0,
07.02 17:06:17:732,557,-0.04386,-0.18135,9.82039,-0.00000,0.00000,-24685744208244365821214720.00000,0.29416,-0.06483,-0.56373,-0.94729,100.60932,0.33804,0.63866,-0.00755,-0.00448,0.76944,0.00000,0.00000,0.00000,0.00000,1,0,
07.02 17:06:17:742,558,-0.02050,-0.16201,9.80041,-0.00000,0.00000,-24685744208244365821214720.00000,0.29466,-0.06582,-0.56423,-0.94730,100.61146,0.33811,0.63865,-0.00755,-0.00448,0.76945,0.00000,0.00000,0.00000,0.00000,1,0,
07.02 17:06:17:751,559,-0.05351,-0.18488,9.82545,-0.00000,0.00000,-24685744208244365821214720.00000,0.29465,-0.06384,-0.56322,-0.94731,100.60564,0.33895,0.63869,-0.00756,-0.00447,0.76942,0.00000,0.00000,0.00000,0.00000,1,0,
07.02 17:06:17:762,560,-0.05475,-0.14695,9.82988,-0.00000,0.00000,-24685744208244365821214720.00000,0.29266,-0.06536,-0.56225,-0.94655,100.60927,0.33946,0.63866,-0.00756,-0.00446,0.76944,0.00000,0.00000,0.00000,0.00000,1,0,
07.02 17:06:17:771,561,-0.05754,-0.16528,9.83148,-0.00000,0.00000,-24685744208244365821214720.00000,0.29665,-0.06428,-0.56570,-0.94592,100.61192,0.34000,0.63864,-0.00756,-0.00446,0.76945,0.00000,0.00000,0.00000,0.00000,1,0,
07.02 17:06:17:782,562,-0.06711,-0.15451,9.84051,-0.00000,0.00000,-24685744208244365821214720.00000,0.29367,-0.06431,-0.56473,-0.94598,100.62202,0.34116,0.63858,-0.00756,-0.00445,0.76951,0.00000,0.00000,0.00000,0.00000,1,0,
07.02 17:06:17:793,563,-0.06758,-0.16320,9.81875,-0.00000,0.00000,-24685744208244365821214720.00000,0.29465,-0.06335,-0.56272,-0.94673,100.61948,0.34035,0.63859,-0.00756,-0.00446,0.76949,0.00000,0.00000,0.00000,0.00000,1,0,
07.02 17:06:17:802,564,-0.06770,-0.17703,9.83732,-0.00000,0.00000,-24685744208244365821214720.00000,0.29613,-0.06436,-0.56172,-0.94675,100.62720,0.33963,0.63854,-0.00756,-0.00447,0.76954,0.00000,0.00000,0.00000,0.00000,1,0,
07.02 17:06:17:810,565,-0.06170,-0.15437,9.82020,-0.00000,0.00000,-24685744208244365821214720.00000,0.29367,-0.06681,-0.56474,-0.94698,100.62083,0.33916,0.63858,-0.00755,-0.00447,0.76950,0.00000,0.00000,0.00000,0.00000,1,0,
07.02 17:06:17:820,566,-0.05999,-0.17545,9.83810,-0.00000,0.00000,-24685744208244365821214720.00000,0.29465,-0.06583,-0.56373,-0.94813,100.61082,0.33879,0.63865,-0.00756,-0.00448,0.76945,0.00000,0.00000,0.00000,0.00000,1,0,
07.02 17:06:17:831,567,-0.05742,-0.18778,9.83784,-0.00000,0.00000,-24685744208244365821214720.00000,0.29567,-0.06673,-0.56820,-0.94926,100.60696,0.33876,0.63868,-0.00757,-0.00449,0.76942,0.00000,0.00000,0.00000,0.00000,1,0,
07.02 17:06:17:841,568,-0.04478,-0.17114,9.83829,-0.00000,0.00000,-24685744208244365821214720.00000,0.29516,-0.06328,-0.56620,-0.94925,100.60178,0.33914,0.63871,-0.00757,-0.00448,0.76940,0.00000,0.00000,0.00000,0.00000,1,0,
07.02 17:06:17:851,569,-0.07686,-0.18058,9.82895,-0.00000,0.00000,-24685744208244365821214720.00000,0.29465,-0.06484,-0.56323,-0.94956,100.60851,0.33924,0.63867,-0.00757,-0.00449,0.76943,0.00000,0.00000,0.00000,0.00000,1,0,
07.02 17:06:17:862,570,-0.05935,-0.17538,9.83935,-0.00000,0.00000,-24685744208244365821214720.00000,0.29367,-0.06429,-0.56572,-0.94959,100.61089,0.33957,0.63865,-0.00757,-0.00448,0.76945,0.00000,0.00000,0.00000,0.00000,1,0,
07.02 17:06:17:872,571,-0.03746,-0.16766,9.82564,-0.00000,0.00000,-24685744208244365821214720.00000,0.29466,-0.06482,-0.56422,-0.94956,100.61402,0.33926,0.63863,-0.00757,-0.00449,0.76946,0.00000,0.00000,0.00000,0.00000,1,0,
07.02 17:06:17:882,572,-0.05061,-0.16022,9.83279,-0.00000,0.00000,-24685744208244365821214720.00000,0.29365,-0.06436,-0.56224,-0.94972,100.61529,0.33816,0.63862,-0.00756,-0.00449,0.76947,0.00000,0.00000,0.00000,0.00000,1,0,
07.02 17:06:17:892,573,-0.02301,-0.13180,9.83009,-0.00000,0.00000,-24685744208244365821214720.00000,0.29515,-0.06331,-0.56471,-0.94962,100.61458,0.33802,0.63863,-0.00756,-0.00449,0.76947,0.00000,0.00000,0.00000,0.00000,1,0,
07.02 17:06:17:901,574,-0.04160,-0.16790,9.83072,-0.00000,0.00000,-24685744208244365821214720.00000,0.29416,-0.06232,-0.56422,-0.94826,100.61581,0.33993,0.63862,-0.00757,-0.00447,0.76947,0.00000,0.00000,0.00000,0.00000,1,0,
07.02 17:06:17:911,575,-0.06891,-0.15245,9.83417,-0.00000,0.00000,-24685744208244365821214720.00000,0.29368,-0.06327,-0.56671,-0.94654,100.62315,0.34096,0.63857,-0.00756,-0.00446,0.76951,0.00000,0.00000,0.00000,0.00000,1,0,
07.02 17:06:17:921,576,-0.06909,-0.16372,9.82504,-0.00000,0.00000,-24685744208244365821214720.00000,0.29367,-0.06429,-0.56572,-0.94611,100.62530,0.34231,0.63855,-0.00757,-0.00445,0.76953,0.00000,0.00000,0.00000,0.00000,1,0,
07.02 17:06:17:932,577,-0.04819,-0.17136,9.84190,-0.00000,0.00000,-24685744208244365821214720.00000,0.29466,-0.06629,-0.56572,-0.94614,100.63514,0.34189,0.63849,-0.00757,-0.00445,0.76958,0.00000,0.00000,0.00000,0.00000,1,0,
07.02 17:06:17:941,578,-0.04889,-0.17093,9.82256,-0.00000,0.00000,-24685744208244365821214720.00000,0.29664,-0.06232,-0.56370,-0.94614,100.63123,0.34189,0.63851,-0.00757,-0.00445,0.76956,0.00000,0.00000,0.00000,0.00000,1,0,
07.02 17:06:17:952,579,-0.04916,-0.18005,9.82602,-0.00000,0.00000,-24685744208244365821214720.00000,0.29464,-0.06389,-0.56074,-0.94664,100.63034,0.34177,0.63852,-0.00757,-0.00445,0.76955,0.00000,0.00000,0.00000,0.00000,1,0,
07.02 17:06:17:961,580,-0.06496,-0.18937,9.82237,-0.00000,0.00000,-24685744208244365821214720.00000,0.29415,-0.06334,-0.56323,-0.94633,100.62849,0.34108,0.63853,-0.00756,-0.00445,0.76954,0.00000,0.00000,0.00000,0.00000,1,0,
07.02 17:06:17:971,581,-0.04681,-0.16641,9.81753,-0.00000,0.00000,-24685744208244365821214720.00000,0.29416,-0.06382,-0.56422,-0.94736,100.63088,0.34052,0.63852,-0.00757,-0.00446,0.76956,0.00000,0.00000,0.00000,0.00000,1,0,
07.02 17:06:17:981,582,-0.03013,-0.17633,9.81620,-0.00000,0.00000,-24685744208244365821214720.00000,0.29268,-0.06730,-0.56524,-0.94667,100.62971,0.34094,0.63852,-0.00756,-0.00446,0.76955,0.00000,0.00000,0.00000,0.00000,1,0,
07.02 17:06:17:991,583,-0.06462,-0.17214,9.84178,-0.00000,0.00000,-24685744208244365821214720.00000,0.29563,-0.06390,-0.56023,-0.94587,100.63886,0.34123,0.63846,-0.00756,-0.00445,0.76960,0.00000,0.00000,0.00000,0.00000,1,0,
07.02 17:06:18:001,584,-0.06292,-0.13790,9.84283,-0.00000,0.00000,-24685744208244365821214720.00000,0.29365,-0.06385,-0.56273,-0.94573,100.62364,0.34151,0.63857,-0.00756,-0.00445,0.76952,0.00000,0.00000,0.00000,0.00000,1,0,
07.02 17:06:18:011,585,-0.06955,-0.16829,9.82704,-0.00000,0.00000,-24685744208244365821214720.00000,0.29266,-0.06536,-0.56225,-0.94535,100.63084,0.34114,0.63852,-0.00756,-0.00445,0.76956,0.00000,0.00000,0.00000,0.00000,1,0,
07.02 17:06:18:021,586,-0.07605,-0.16271,9.83379,-0.00000,0.00000,-24685744208244365821214720.00000,0.29416,-0.06532,-0.56423,-0.94525,100.63509,0.34113,0.63849,-0.00756,-0.00445,0.76958,0.00000,0.00000,0.00000,0.00000,1,0,
07.02 17:06:18:032,587,-0.05545,-0.16450,9.81827,-0.00000,0.00000,-24685744208244365821214720.00000,0.29316,-0.06534,-0.56324,-0.94434,100.63521,0.34082,0.63849,-0.00755,-0.00444,0.76958,0.00000,0.00000,0.00000,0.00000,1,0,
07.02 17:06:18:042,588,-0.04067,-0.16043,9.83014,-0.00000,0.00000,-24685744208244365821214720.00000,0.29564,-0.06483,-0.56322,-0.94320,100.63328,0.34095,0.63850,-0.00755,-0.00443,0.76957,0.00000,0.00000,0.00000,0.00000,1,0,
07.02 17:06:18:050,589,-0.04347,-0.19733,9.81896,-0.00000,0.00000,-24685744208244365821214720.00000,0.29566,-0.06379,-0.56570,-0.94335,100.63046,0.34055,0.63852,-0.00754,-0.00444,0.76956,0.00000,0.00000,0.00000,0.00000,1,0,
07.02 17:06:18:061,590,-0.05831,-0.17047,9.82340,-0.00000,0.00000,-24685744208244365821214720.00000,0.29614,-0.06383,-0.56321,-0.94336,100.63874,0.34014,0.63846,-0.00754,-0.00444,0.76960,0.00000,0.00000,0.00000,0.00000,1,0,
07.02 17:06:18:071,591,-0.05328,-0.19161,9.83084,-0.00000,0.00000,-24685744208244365821214720.00000,0.29466,-0.06530,-0.56522,-0.94219,100.62834,0.34116,0.63853,-0.00754,-0.00443,0.76954,0.00000,0.00000,0.00000,0.00000,1,0,
07.02 17:06:18:081,592,-0.08143,-0.17890,9.82828,-0.00000,0.00000,-24685744208244365821214720.00000,0.29415,-0.06535,-0.56274,-0.94147,100.62681,0.34096,0.63854,-0.00754,-0.00442,0.76954,0.00000,0.00000,0.00000,0.00000,1,0,
07.02 17:06:18:093,593,-0.06314,-0.15289,9.83482,-0.00000,0.00000,-24685744208244365821214720.00000,0.29366,-0.06432,-0.56423,-0.94059,100.63075,0.34212,0.63852,-0.00754,-0.00441,0.76956,0.00000,0.00000,0.00000,0.00000,1,0,
07.02 17:06:18:103,594,-0.05551,-0.17030,9.81186,-0.00000,0.00000,-24685744208244365821214720.00000,0.29218,-0.06432,-0.56474,-0.93873,100.62913,0.34092,0.63853,-0.00752,-0.00440,0.76955,0.00000,0.00000,0.00000,0.00000,1,0,
07.02 17:06:18:111,595,-0.04955,-0.16221,9.81150,-0.00000,0.00000,-24685744208244365821214720.00000,0.29316,-0.06484,-0.56324,-0.93938,100.63287,0.34106,0.63850,-0.00752,-0.00441,0.76957,0.00000,0.00000,0.00000,0.00000,1,0,
07.02 17:06:18:121,596,-0.03622,-0.16458,9.84576,-0.00000,0.00000,-24685744208244365821214720.00000,0.29465,-0.06433,-0.56372,-0.93837,100.63112,0.33957,0.63852,-0.00751,-0.00441,0.76956,0.00000,0.00000,0.00000,0.00000,1,0,
07.02 17:06:18:130,597,-0.04070,-0.15757,9.82783,-0.00000,0.00000,-24685744208244365821214720.00000,0.29366,-0.06383,-0.56373,-0.93770,100.63026,0.33985,0.63852,-0.00751,-0.00440,0.76955,0.00000,0.00000,0.00000,0.00000,1,0,
07.02 17:06:18:141,598,-0.04312,-0.17244,9.82130,-0.00000,0.00000,-24685744208244365821214720.00000,0.29465,-0.06435,-0.56273,-0.93780,100.63271,0.33996,0.63851,-0.00751,-0.00440,0.76957,0.00000,0.00000,0.00000,0.00000,1,0,
07.02 17:06:18:152,599,-0.06233,-0.17138,9.83975,-0.00000,0.00000,-24685744208244365821214720.00000,0.29316,-0.06483,-0.56374,-0.93746,100.63303,0.33964,0.63850,-0.00750,-0.00440,0.76957,0.00000,0.00000,0.00000,0.00000,1,0,
07.02 17:06:18:161,600,-0.06988,-0.16539,9.83579,-0.00000,0.00000,-24685744208244365821214720.00000,0.29415,-0.06684,-0.56324,-0.93735,100.63915,0.34133,0.63846,-0.00752,-0.00439,0.76960,0.00000,0.00000,0.00000,0.00000,1,0,
07.02 17:06:18:171,601,-0.09038,-0.17813,9.83844,-0.00000,0.00000,-24685744208244365821214720.00000,0.29613,-0.06435,-0.56222,-0.95969,100.62077,0.32757,0.63858,-0.00755,-0.00462,0.76950,0.00000,0.00000,0.00000,0.00000,1,0,
07.02 17:06:18:181,602,-0.05744,-0.18445,9.82979,-0.00000,0.00000,-24685744208244365821214720.00000,0.29367,-0.06531,-0.56473,-0.95877,100.61607,0.32686,0.63862,-0.00754,-0.00462,0.76947,0.00000,0.00000,0.00000,0.00000,1,0,
07.02 17:06:18:191,603,-0.05879,-0.17594,9.83236,-0.00000,0.00000,-24685744208244365821214720.00000,0.29564,-0.06484,-0.56272,-0.95810,100.61729,0.32727,0.63861,-0.00754,-0.00461,0.76948,0.00000,0.00000,0.00000,0.00000,1,0,
07.02 17:06:18:202,604,-0.03947,-0.16056,9.81825,-0.00000,0.00000,-24685744208244365821214720.00000,0.29416,-0.06381,-0.56472,-0.95814,100.63282,0.32735,0.63850,-0.00754,-0.00461,0.76957,0.00000,0.00000,0.00000,0.00000,1,0,
07.02 17:06:18:211,605,-0.05453,-0.15929,9.83124,-0.00000,0.00000,-24685744208244365821214720.00000,0.29317,-0.06381,-0.56473,-0.95752,100.63583,0.32694,0.63848,-0.00753,-0.00461,0.76958,0.00000,0.00000,0.00000,0.00000,1,0,
07.02 17:06:18:222,606,-0.05318,-0.15225,9.83124,-0.00000,0.00000,-24685744208244365821214720.00000,0.29566,-0.06577,-0.56621,-0.95714,100.63351,0.32742,0.63850,-0.00753,-0.00460,0.76957,0.00000,0.00000,0.00000,0.00000,1,0,
07.02 17:06:18:232,607,-0.05260,-0.16281,9.82435,-0.00000,0.00000,-24685744208244365821214720.00000,0.29467,-0.06776,-0.56672,-0.95727,100.63241,0.32721,0.63851,-0.00753,-0.00461,0.76957,0.00000,0.00000,0.00000,0.00000,1,0,
07.02 17:06:18:243,608,-0.05693,-0.16999,9.82614,-0.00000,0.00000,-24685744208244365821214720.00000,0.29465,-0.06485,-0.56273,-0.95767,100.62213,0.32726,0.63858,-0.00753,-0.00461,0.76951,0.00000,0.00000,0.00000,0.00000,1,0,
07.02 17:06:18:252,609,-0.05188,-0.17443,9.82907,-0.00000,0.00000,-24685744208244365821214720.00000,0.29416,-0.06530,-0.56522,-0.95769,100.61906,0.32667,0.63860,-0.00753,-0.00461,0.76949,0.00000,0.00000,0.00000,0.00000,1,0,
07.02 17:06:18:261,610,-0.04927,-0.17220,9.83787,-0.00000,0.00000,-24685744208244365821214720.00000,0.29465,-0.06333,-0.56372,-0.95818,100.61852,0.32667,0.63860,-0.00753,-0.00461,0.76949,0.00000,0.00000,0.00000,0.00000,1,0,
07.02 17:06:18:270,611,-0.06435,-0.17980,9.81913,-0.00000,0.00000,-24685744208244365821214720.00000,0.29365,-0.06437,-0.56174,-0.95888,100.61893,0.32644,0.63860,-0.00754,-0.00462,0.76949,0.00000,0.00000,0.00000,0.00000,1,0,
07.02 17:06:18:280,612,-0.05821,-0.15591,9.83067,-0.00000,0.00000,-24685744208244365821214720.00000,0.29365,-0.06586,-0.56224,-0.95794,100.61861,0.32658,0.63860,-0.00753,-0.00461,0.76949,0.00000,0.00000,0.00000,0.00000,1,0,
07.02 17:06:18:291,613,-0.07388,-0.17105,9.83038,-0.00000,0.00000,-24685744208244365821214720.00000,0.29516,-0.06629,-0.56522,-0.95728,100.61825,0.32758,0.63860,-0.00753,-0.00460,0.76949,0.00000,0.00000,0.00000,0.00000,1,0,
07.02 17:06:18:301,614,-0.05651,-0.16702,9.84926,-0.00000,0.00000,-24685744208244365821214720.00000,0.29266,-0.06536,-0.56225,-0.95718,100.61755,0.32808,0.63861,-0.00754,-0.00460,0.76948,0.00000,0.00000,0.00000,0.00000,1,0,
07.02 17:06:18:311,615,-0.07511,-0.14218,9.82457,-0.00000,0.00000,-24685744208244365821214720.00000,0.29464,-0.06436,-0.56223,-0.95645,100.61802,0.32718,0.63860,-0.00753,-0.00460,0.76949,0.00000,0.00000,0.00000,0.00000,1,0,
07.02 17:06:18:321,616,-0.06186,-0.17434,9.83439,-0.00000,0.00000,-24685744208244365821214720.00000,0.29366,-0.06433,-0.56373,-0.95541,100.62120,0.32735,0.63858,-0.00752,-0.00459,0.76950,0.00000,0.00000,0.00000,0.00000,1,0,
07.02 17:06:18:330,617,-0.04867,-0.15726,9.81763,-0.00000,0.00000,-24685744208244365821214720.00000,0.29216,-0.06487,-0.56175,-0.95644,100.61958,0.32701,0.63859,-0.00753,-0.00460,0.76949,0.00000,0.00000,0.00000,0.00000,1,0,
07.02 17:06:18:340,618,-0.06881,-0.17638,9.82361,-0.00000,0.00000,-24685744208244365821214720.00000,0.29614,-0.06285,-0.56271,-0.95753,100.61547,0.32649,0.63862,-0.00753,-0.00461,0.76947,0.00000,0.00000,0.00000,0.00000,1,0,
07.02 17:06:18:351,619,-0.06707,-0.17462,9.82786,-0.00000,0.00000,-24685744208244365821214720.00000,0.29268,-0.06530,-0.56524,-0.95741,100.62279,0.32634,0.63857,-0.00753,-0.00461,0.76951,0.00000,0.00000,0.00000,0.00000,1,0,
07.02 17:06:18:361,620,-0.06542,-0.16694,9.82177,-0.00000,0.00000,-24685744208244365821214720.00000,0.29315,-0.06240,-0.56074,-0.95643,100.60365,0.32762,0.63870,-0.00753,-0.00460,0.76941,0.00000,0.00000,0.00000,0.00000,1,0,
07.02 17:06:18:372,621,-0.04455,-0.15596,9.84593,-0.00000,0.00000,-24685744208244365821214720.00000,0.29615,-0.06430,-0.56471,-0.95719,100.60428,0.32849,0.63870,-0.00754,-0.00460,0.76941,0.00000,0.00000,0.00000,0.00000,1,0,
07.02 17:06:18:381,622,-0.05565,-0.17419,9.82719,-0.00000,0.00000,-24685744208244365821214720.00000,0.29367,-0.06481,-0.56473,-0.95757,100.60473,0.32801,0.63869,-0.00754,-0.00460,0.76941,0.00000,0.00000,0.00000,0.00000,1,0,
07.02 17:06:18:392,623,-0.06186,-0.18283,9.83122,-0.00000,0.00000,-24685744208244365821214720.00000,0.29566,-0.06428,-0.56571,-0.95689,100.60339,0.32833,0.63870,-0.00754,-0.00459,0.76940,0.00000,0.00000,0.00000,0.00000,1,0,
07.02 17:06:18:402,624,-0.04842,-0.15985,9.82197,-0.00000,0.00000,-24685744208244365821214720.00000,0.29464,-0.06437,-0.56173,-0.95690,100.60278,0.32891,0.63871,-0.00754,-0.00459,0.76940,0.00000,0.00000,0.00000,0.00000,1,0,
07.02 17:06:18:411,625,-0.06133,-0.17194,9.84276,-0.00000,0.00000,-24685744208244365821214720.00000,0.29365,-0.06437,-0.56174,-0.95535,100.61033,0.32848,0.63866,-0.00753,-0.00458,0.76944,0.00000,0.00000,0.00000,0.00000,1,0,
07.02 17:06:18:421,626,-0.03183,-0.16293,9.81446,-0.00000,0.00000,-24685744208244365821214720.00000,0.29614,-0.06233,-0.56370,-0.95525,100.61033,0.32911,0.63866,-0.00753,-0.00458,0.76944,0.00000,0.00000,0.00000,0.00000,1,0,
07.02 17:06:18:431,627,-0.03483,-0.17013,9.84767,-0.00000,0.00000,-24685744208244365821214720.00000,0.29467,-0.06228,-0.56620,-0.95406,100.59954,0.33082,0.63873,-0.00754,-0.00456,0.76938,0.00000,0.00000,0.00000,0.00000,1,0,
07.02 17:06:18:441,628,-0.03154,-0.13701,9.80427,-0.00000,0.00000,-24685744208244365821214720.00000,0.29417,-0.06479,-0.56572,-0.95416,100.61446,0.32993,0.63863,-0.00753,-0.00457,0.76947,0.00000,0.00000,0.00000,0.00000,1,0,
07.02 17:06:18:451,629,-0.05763,-0.16026,9.84581,-0.00000,0.00000,-24685744208244365821214720.00000,0.29466,-0.06532,-0.56422,-0.95329,100.61579,0.33061,0.63862,-0.00753,-0.00456,0.76947,0.00000,0.00000,0.00000,0.00000,1,0,
07.02 17:06:18:463,630,-0.06191,-0.15967,9.82557,-0.00000,0.00000,-24685744208244365821214720.00000,0.29515,-0.06534,-0.56323,-0.95258,100.61349,0.33082,0.63863,-0.00753,-0.00455,0.76946,0.00000,0.00000,0.00000,0.00000,1,0,
07.02 17:06:18:472,631,-0.05783,-0.18012,9.84898,-0.00000,0.00000,-24685744208244365821214720.00000,0.29564,-0.06336,-0.56222,-0.95121,100.61372,0.33122,0.63863,-0.00753,-0.00454,0.76946,0.00000,0.00000,0.00000,0.00000,1,0,
07.02 17:06:18:481,632,-0.05531,-0.18102,9.82151,-0.00000,0.00000,-24685744208244365821214720.00000,0.29514,-0.06485,-0.56273,-0.95098,100.61671,0.33057,0.63861,-0.00752,-0.00454,0.76948,0.00000,0.00000,0.00000,0.00000,1,0,
07.02 17:06:18:491,633,-0.06759,-0.17243,9.83405,-0.00000,0.00000,-24685744208244365821214720.00000,0.29614,-0.06335,-0.56271,-0.95028,100.61465,0.33111,0.63863,-0.00752,-0.00454,0.76947,0.00000,0.00000,0.00000,0.00000,1,0,
07.02 17:06:18:501,634,-0.04503,-0.16545,9.83896,-0.00000,0.00000,-24685744208244365821214720.00000,0.29416,-0.06333,-0.56372,-0.95007,100.61239,0.33102,0.63864,-0.00752,-0.00453,0.76945,0.00000,0.00000,0.00000,0.00000,1,0,
07.02 17:06:18:511,635,-0.05863,-0.17771,9.80513,-0.00000,0.00000,-24685744208244365821214720.00000,0.29366,-0.06732,-0.56424,-0.95082,100.61059,0.33104,0.63865,-0.00752,-0.00454,0.76944,0.00000,0.00000,0.00000,0.00000,1,0,
07.02 17:06:18:521,636,-0.05276,-0.15484,9.83427,-0.00000,0.00000,-24685744208244365821214720.00000,0.29315,-0.06390,-0.56025,-0.95037,100.61042,0.33188,0.63865,-0.00753,-0.00453,0.76944,0.00000,0.00000,0.00000,0.00000,1,0,
07.02 17:06:18:530,637,-0.04699,-0.16081,9.82154,-0.00000,0.00000,-24685744208244365821214720.00000,0.29316,-0.06486,-0.56224,-0.95102,100.60826,0.33263,0.63867,-0.00753,-0.00453,0.76943,0.00000,0.00000,0.00000,0.00000,1,0,
07.02 17:06:18:541,638,-0.07420,-0.16455,9.82962,-0.00000,0.00000,-24685744208244365821214720.00000,0.29515,-0.06532,-0.56422,-0.95129,100.60922,0.33382,0.63866,-0.00754,-0.00453,0.76944,0.00000,0.00000,0.00000,0.00000,1,0,
07.02 17:06:18:551,639,-0.05387,-0.16916,9.82950,-0.00000,0.00000,-24685744208244365821214720.00000,0.29515,-0.06384,-0.56322,-0.95124,100.60558,0.33475,0.63869,-0.00755,-0.00452,0.76942,0.00000,0.00000,0.00000,0.00000,1,0,
07.02 17:06:18:561,640,-0.05529,-0.15635,9.84924,-0.00000,0.00000,-24685744208244365821214720.00000,0.29265,-0.06289,-0.56125,-0.95206,100.60718,0.33495,0.63868,-0.00756,-0.00453,0.76943,0.00000,0.00000,0.00000,0.00000,1,0,
07.02 17:06:18:571,641,-0.05456,-0.13792,9.83467,-0.00000,0.00000,-24685744208244365821214720.00000,0.29416,-0.06182,-0.56422,-0.95254,100.60171,0.33417,0.63871,-0.00755,-0.00453,0.76939,0.00000,0.00000,0.00000,0.00000,1,0,
07.02 17:06:18:581,642,-0.03199,-0.15518,9.80344,-0.00000,0.00000,-24685744208244365821214720.00000,0.29267,-0.06434,-0.56324,-0.95388,100.61349,0.33387,0.63863,-0.00756,-0.00454,0.76946,0.00000,0.00000,0.00000,0.00000,1,0,
07.02 17:06:18:591,643,-0.04965,-0.16064,9.85010,-0.00000,0.00000,-24685744208244365821214720.00000,0.29565,-0.06480,-0.56471,-0.95349,100.61864,0.33353,0.63860,-0.00755,-0.00454,0.76949,0.00000,0.00000,0.00000,0.00000,1,0,
07.02 17:06:18:601,644,-0.04233,-0.15982,9.78413,-0.00000,0.00000,-24685744208244365821214720.00000,0.29415,-0.06535,-0.56274,-0.95272,100.62135,0.33377,0.63858,-0.00755,-0.00454,0.76950,0.00000,0.00000,0.00000,0.00000,1,0,
07.02 17:06:18:611,645,-0.07500,-0.18247,9.84462,-0.00000,0.00000,-24685744208244365821214720.00000,0.29465,-0.06335,-0.56272,-0.95245,100.63036,0.33454,0.63852,-0.00755,-0.00453,0.76955,0.00000,0.00000,0.00000,0.00000,1,0,
07.02 17:06:18:622,646,-0.05742,-0.15898,9.80892,-0.00000,0.00000,-24685744208244365821214720.00000,0.29615,-0.06380,-0.56470,-0.95280,100.62804,0.33439,0.63854,-0.00756,-0.00454,0.76954,0.00000,0.00000,0.00000,0.00000,1,0,
07.02 17:06:18:631,647,-0.05979,-0.17934,9.85992,-0.00000,0.00000,-24685744208244365821214720.00000,0.29464,-0.06489,-0.56074,-0.95237,100.62819,0.33415,0.63854,-0.00755,-0.00453,0.76954,0.00000,0.00000,0.00000,0.00000,1,0,
07.02 17:06:18:641,648,-0.05039,-0.18140,9.79064,-0.00000,0.00000,-24685744208244365821214720.00000,0.29415,-0.06536,-0.56224,-0.95218,100.62273,0.33460,0.63857,-0.00755,-0.00453,0.76951,0.00000,0.00000,0.00000,0.00000,1,0,
07.02 17:06:18:652,649,-0.03203,-0.17436,9.85215,-0.00000,0.00000,-24685744208244365821214720.00000,0.29266,-0.06287,-0.56224,-0.95156,100.62794,0.33480,0.63854,-0.00755,-0.00452,0.76954,0.00000,0.00000,0.00000,0.00000,1,0,
07.02 17:06:18:661,650,-0.04997,-0.15819,9.79910,-0.00000,0.00000,-24685744208244365821214720.00000,0.29564,-0.06534,-0.56272,-0.95155,100.62821,0.33395,0.63854,-0.00755,-0.00453,0.76954,0.00000,0.00000,0.00000,0.00000,1,0,
07.02 17:06:18:671,651,-0.08938,-0.15212,9.83908,-0.00000,0.00000,-24685744208244365821214720.00000,0.29565,-0.06430,-0.56521,-0.95146,100.63060,0.33366,0.63852,-0.00754,-0.00453,0.76956,0.00000,0.00000,0.00000,0.00000,1,0,
07.02 17:06:18:681,652,-0.04764,-0.14689,9.81031,-0.00000,0.00000,-24685744208244365821214720.00000,0.29366,-0.06532,-0.56423,-0.95232,100.62462,0.33490,0.63856,-0.00756,-0.00453,0.76952,0.00000,0.00000,0.00000,0.00000,1,0,
07.02 17:06:18:692,653,-0.05140,-0.15347,9.84953,-0.00000,0.00000,-24685744208244365821214720.00000,0.29565,-0.06431,-0.56471,-0.95119,100.62518,0.33414,0.63856,-0.00754,-0.00453,0.76953,0.00000,0.00000,0.00000,0.00000,1,0,
07.02 17:06:18:701,654,-0.05351,-0.15984,9.81026,-0.00000,0.00000,-24685744208244365821214720.00000,0.29613,-0.06535,-0.56222,-0.95165,100.61775,0.33410,0.63861,-0.00755,-0.00453,0.76948,0.00000,0.00000,0.00000,0.00000,1,0,
07.02 17:06:18:711,655,-0.06119,-0.18719,9.84042,-0.00000,0.00000,-24685744208244365821214720.00000,0.29316,-0.06186,-0.56273,-0.95272,100.60100,0.33259,0.63872,-0.00754,-0.00454,0.76939,0.00000,0.00000,0.00000,0.00000,1,0,
07.02 17:06:18:721,656,-0.06547,-0.16453,9.84027,-0.00000,0.00000,-24685744208244365821214720.00000,0.29365,-0.06435,-0.56274,-0.95303,100.60809,0.33158,0.63867,-0.00754,-0.00455,0.76943,0.00000,0.00000,0.00000,0.00000,1,0,
07.02 17:06:18:730,657,-0.06242,-0.19101,9.83067,-0.00000,0.00000,-24685744208244365821214720.00000,0.29463,-0.06490,-0.56024,-0.95327,100.60765,0.33222,0.63867,-0.00754,-0.00455,0.76943,0.00000,0.00000,0.00000,0.00000,1,0,
07.02 17:06:18:742,658,-0.07664,-0.15675,9.81066,-0.00000,0.00000,-24685744208244365821214720.00000,0.29565,-0.06480,-0.56471,-0.95365,100.61246,0.33258,0.63864,-0.00755,-0.00455,0.76945,0.00000,0.00000,0.00000,0.00000,1,0,
07.02 17:06:18:751,659,-0.08395,-0.17302,9.83367,-0.00000,0.00000,-24685744208244365821214720.00000,0.29317,-0.06232,-0.56423,-0.95379,100.61720,0.33157,0.63861,-0.00754,-0.00456,0.76948,0.00000,0.00000,0.00000,0.00000,1,0,
07.02 17:06:18:762,660,-0.05156,-0.19855,9.78635,-0.00000,0.00000,-24685744208244365821214720.00000,0.29366,-0.06634,-0.56324,-0.95453,100.61695,0.33186,0.63861,-0.00755,-0.00456,0.76948,0.00000,0.00000,0.00000,0.00000,1,0,
07.02 17:06:18:772,661,-0.06795,-0.19162,9.86746,-0.00000,0.00000,-24685744208244365821214720.00000,0.29564,-0.06436,-0.56222,-0.95435,100.61171,0.33182,0.63865,-0.00755,-0.00456,0.76945,0.00000,0.00000,0.00000,0.00000,1,0,
07.02 17:06:18:780,662,-0.04677,-0.13511,9.78553,-0.00000,0.00000,-24685744208244365821214720.00000,0.29465,-0.06383,-0.56372,-0.95424,100.60451,0.33116,0.63869,-0.00754,-0.00456,0.76941,0.00000,0.00000,0.00000,0.00000,1,0,
07.02 17:06:18:791,663,-0.05089,-0.18272,9.84833,-0.00000,0.00000,-24685744208244365821214720.00000,0.29366,-0.06533,-0.56373,-0.95449,100.59885,0.33170,0.63873,-0.00755,-0.00456,0.76938,0.00000,0.00000,0.00000,0.00000,1,0,
07.02 17:06:18:801,664,-0.05457,-0.15280,9.80153,-0.00000,0.00000,-24685744208244365821214720.00000,0.29565,-0.06480,-0.56471,-0.95587,100.59800,0.33138,0.63874,-0.00755,-0.00457,0.76937,0.00000,0.00000,0.00000,0.00000,1,0,
07.02 17:06:18:811,665,-0.04521,-0.16834,9.88255,-0.00000,0.00000,-24685744208244365821214720.00000,0.29415,-0.06434,-0.56323,-0.95587,100.59640,0.33122,0.63875,-0.00755,-0.00457,0.76936,0.00000,0.00000,0.00000,0.00000,1,0,
07.02 17:06:18:821,666,-0.05542,-0.13576,9.76887,-0.00000,0.00000,-24685744208244365821214720.00000,0.29516,-0.06328,-0.56620,-0.95695,100.59460,0.33097,0.63876,-0.00756,-0.00458,0.76935,0.00000,0.00000,0.00000,0.00000,1,0,
07.02 17:06:18:831,667,-0.07210,-0.15607,9.87899,-0.00000,0.00000,-24685744208244365821214720.00000,0.29514,-0.06537,-0.56173,-0.95723,100.59689,0.33213,0.63875,-0.00757,-0.00458,0.76937,0.00000,0.00000,0.00000,0.00000,1,0,
07.02 17:06:18:842,668,-0.05351,-0.13787,9.75361,-0.00000,0.00000,-24685744208244365821214720.00000,0.29317,-0.06381,-0.56473,-0.95746,100.60503,0.33189,0.63869,-0.00757,-0.00458,0.76941,0.00000,0.00000,0.00000,0.00000,1,0,
07.02 17:06:18:852,669,-0.05666,-0.19018,9.87203,-0.00000,0.00000,-24685744208244365821214720.00000,0.29515,-0.06533,-0.56372,-0.95692,100.61347,0.33178,0.63863,-0.00756,-0.00458,0.76946,0.00000,0.00000,0.00000,0.00000,1,0,
07.02 17:06:18:861,670,-0.05245,-0.17350,9.77328,-0.00000,0.00000,-24685744208244365821214720.00000,0.29464,-0.06488,-0.56124,-0.95751,100.60776,0.33238,0.63867,-0.00757,-0.00458,0.76943,0.00000,0.00000,0.00000,0.00000,1,0,
07.02 17:06:18:871,671,-0.06644,-0.17237,9.87304,-0.00000,0.00000,-24685744208244365821214720.00000,0.29366,-0.06433,-0.56373,-0.95744,100.60931,0.33327,0.63866,-0.00757,-0.00457,0.76944,0.00000,0.00000,0.00000,0.00000,1,0,
07.02 17:06:18:881,672,-0.05339,-0.16837,9.80323,-0.00000,0.00000,-24685744208244365821214720.00000,0.29267,-0.06583,-0.56374,-0.95643,100.60902,0.33348,0.63866,-0.00757,-0.00456,0.76944,0.00000,0.00000,0.00000,0.00000,1,0,
07.02 17:06:18:891,673,-0.07027,-0.15814,9.84843,-0.00000,0.00000,-24685744208244365821214720.00000,0.29664,-0.06332,-0.56370,-0.95680,100.61100,0.33395,0.63865,-0.00758,-0.00456,0.76945,0.00000,0.00000,0.00000,0.00000,1,0,
07.02 17:06:18:901,674,-0.07423,-0.16124,9.81152,-0.00000,0.00000,-24685744208244365821214720.00000,0.29713,-0.06432,-0.56370,-0.95686,100.61580,0.33274,0.63862,-0.00757,-0.00457,0.76947,0.00000,0.00000,0.00000,0.00000,1,0,
07.02 17:06:18:912,675,-0.05910,-0.16869,9.83515,-0.00000,0.00000,-24685744208244365821214720.00000,0.29466,-0.06631,-0.56473,-0.95790,100.60894,0.33320,0.63866,-0.00758,-0.00457,0.76943,0.00000,0.00000,0.00000,0.00000,1,0,
07.02 17:06:18:922,676,-0.06379,-0.16034,9.82602,-0.00000,0.00000,-24685744208244365821214720.00000,0.29366,-0.06284,-0.56323,-0.95952,100.61158,0.33389,0.63865,-0.00759,-0.00458,0.76945,0.00000,0.00000,0.00000,0.00000,1,0,
07.02 17:06:18:931,677,-0.05707,-0.16942,9.83532,-0.00000,0.00000,-24685744208244365821214720.00000,0.29515,-0.06484,-0.56322,-0.95877,100.61294,0.33532,0.63864,-0.00760,-0.00457,0.76946,0.00000,0.00000,0.00000,0.00000,1,0,
07.02 17:06:18:941,678,-0.05401,-0.14592,9.83503,-0.00000,0.00000,-24685744208244365821214720.00000,0.29317,-0.06631,-0.56474,-0.95835,100.61266,0.33491,0.63864,-0.00759,-0.00457,0.76946,0.00000,0.00000,0.00000,0.00000,1,0,
07.02 17:06:18:951,679,-0.04983,-0.14729,9.83040,-0.00000,0.00000,-24685744208244365821214720.00000,0.29514,-0.06386,-0.56222,-0.95967,100.61744,0.33621,0.63861,-0.00761,-0.00457,0.76948,0.00000,0.00000,0.00000,0.00000,1,0,
07.02 17:06:18:960,680,-0.06627,-0.16684,9.83186,-0.00000,0.00000,-24685744208244365821214720.00000,0.29564,-0.06684,-0.56273,-0.96104,100.62132,0.33520,0.63858,-0.00761,-0.00459,0.76950,0.00000,0.00000,0.00000,0.00000,1,0,
07.02 17:06:18:971,681,-0.04559,-0.19438,9.82685,-0.00000,0.00000,-24685744208244365821214720.00000,0.29366,-0.06834,-0.56325,-0.96142,100.61526,0.33555,0.63862,-0.00761,-0.00459,0.76947,0.00000,0.00000,0.00000,0.00000,1,0,
07.02 17:06:18:980,682,-0.06161,-0.18447,9.80652,-0.00000,0.00000,-24685744208244365821214720.00000,0.29215,-0.06690,-0.56027,-0.96194,100.57499,0.33730,0.63889,-0.00763,-0.00458,0.76925,0.00000,0.00000,0.00000,0.00000,1,0,
07.02 17:06:18:992,683,-0.05029,-0.17851,9.83105,-0.00000,0.00000,-24685744208244365821214720.00000,0.29664,-0.06431,-0.56420,-0.96232,100.56059,0.33868,0.63899,-0.00764,-0.00457,0.76917,0.00000,0.00000,0.00000,0.00000,1,0,
07.02 17:06:19:002,684,-0.04475,-0.16082,9.83429,-0.00000,0.00000,-24685744208244365821214720.00000,0.29514,-0.06335,-0.56272,-0.96204,100.56211,0.33913,0.63898,-0.00764,-0.00457,0.76917,0.00000,0.00000,0.00000,0.00000,1,0,
07.02 17:06:19:011,685,-0.06805,-0.15608,9.82147,-0.00000,0.00000,-24685744208244365821214720.00000,0.29315,-0.06188,-0.56174,-0.96124,100.56479,0.33840,0.63896,-0.00763,-0.00457,0.76919,0.00000,0.00000,0.00000,0.00000,1,0,
07.02 17:06:19:021,686,-0.06063,-0.17177,9.82445,-0.00000,0.00000,-24685744208244365821214720.00000,0.29565,-0.06482,-0.56372,-0.96073,100.57119,0.33833,0.63892,-0.00763,-0.00456,0.76922,0.00000,0.00000,0.00000,0.00000,1,0,
07.02 17:06:19:031,687,-0.05489,-0.16056,9.82936,-0.00000,0.00000,-24685744208244365821214720.00000,0.29615,-0.06480,-0.56471,-0.96086,100.57335,0.33899,0.63890,-0.00763,-0.00456,0.76924,0.00000,0.00000,0.00000,0.00000,1,0,
07.02 17:06:19:041,688,-0.06789,-0.16534,9.83131,-0.00000,0.00000,-24685744208244365821214720.00000,0.29516,-0.06530,-0.56522,-0.96045,100.56675,0.33944,0.63895,-0.00763,-0.00455,0.76920,0.00000,0.00000,0.00000,0.00000,1,0,
07.02 17:06:19:052,689,-0.07464,-0.17226,9.83246,-0.00000,0.00000,-24685744208244365821214720.00000,0.29664,-0.06432,-0.56371,-0.96155,100.57173,0.33954,0.63891,-0.00764,-0.00456,0.76923,0.00000,0.00000,0.00000,0.00000,1,0,
07.02 17:06:19:062,690,-0.07402,-0.16414,9.82151,-0.00000,0.00000,-24685744208244365821214720.00000,0.29316,-0.06383,-0.56373,-0.96170,100.57613,0.33975,0.63888,-0.00764,-0.00456,0.76925,0.00000,0.00000,0.00000,0.00000,1,0,
07.02 17:06:19:073,691,-0.04942,-0.16017,9.83322,-0.00000,0.00000,-24685744208244365821214720.00000,0.29466,-0.06281,-0.56471,-0.96144,100.57381,0.33915,0.63890,-0.00764,-0.00456,0.76924,0.00000,0.00000,0.00000,0.00000,1,0,
07.02 17:06:19:081,692,-0.05539,-0.15236,9.81510,-0.00000,0.00000,-24685744208244365821214720.00000,0.29365,-0.06386,-0.56224,-0.96123,100.57674,0.33931,0.63888,-0.00764,-0.00456,0.76926,0.00000,0.00000,0.00000,0.00000,1,0,
07.02 17:06:19:092,693,-0.07325,-0.15452,9.83401,-0.00000,0.00000,-24685744208244365821214720.00000,0.29218,-0.06331,-0.56523,-0.96186,100.57883,0.33915,0.63887,-0.00764,-0.00457,0.76927,0.00000,0.00000,0.00000,0.00000,1,0,
07.02 17:06:19:102,694,-0.04770,-0.17855,9.82711,-0.00000,0.00000,-24685744208244365821214720.00000,0.29416,-0.06582,-0.56423,-0.96320,100.58549,0.33813,0.63882,-0.00764,-0.00458,0.76930,0.00000,0.00000,0.00000,0.00000,1,0,
07.02 17:06:19:111,695,-0.03998,-0.17675,9.82814,-0.00000,0.00000,-24685744208244365821214720.00000,0.29367,-0.06530,-0.56523,-0.96403,100.58897,0.33870,0.63880,-0.00765,-0.00458,0.76932,0.00000,0.00000,0.00000,0.00000,1,0,
07.02 17:06:19:121,696,-0.04354,-0.17644,9.82521,-0.00000,0.00000,-24685744208244365821214720.00000,0.29415,-0.06534,-0.56323,-0.96338,100.59335,0.33853,0.63877,-0.00764,-0.00458,0.76935,0.00000,0.00000,0.00000,0.00000,1,0,
07.02 17:06:19:130,697,-0.04845,-0.17043,9.83177,-0.00000,0.00000,-24685744208244365821214720.00000,0.29366,-0.06333,-0.56373,-0.96415,100.58908,0.33900,0.63880,-0.00765,-0.00458,0.76932,0.00000,0.00000,0.00000,0.00000,1,0,
07.02 17:06:19:142,698,-0.06720,-0.17190,9.83684,-0.00000,0.00000,-24685744208244365821214720.00000,0.29614,-0.06484,-0.56272,-0.96388,100.59007,0.33890,0.63879,-0.00765,-0.00458,0.76933,0.00000,0.00000,0.00000,0.00000,1,0,
07.02 17:06:19:153,699,-0.06073,-0.16739,9.82650,-0.00000,0.00000,-24685744208244365821214720.00000,0.29366,-0.06483,-0.56373,-0.96427,100.59504,0.33851,0.63876,-0.00765,-0.00459,0.76936,0.00000,0.00000,0.00000,0.00000,1,0,
07.02 17:06:19:161,700,-0.05355,-0.17873,9.82211,-0.00000,0.00000,-24685744208244365821214720.00000,0.29316,-0.06483,-0.56374,-0.96387,100.59221,0.33948,0.63878,-0.00765,-0.00458,0.76934,0.00000,0.00000,0.00000,0.00000,1,0,
07.02 17:06:19:171,701,-0.05193,-0.16765,9.82070,-0.00000,0.00000,-24685744208244365821214720.00000,0.29416,-0.06333,-0.56372,-0.96390,100.59442,0.33911,0.63876,-0.00765,-0.00458,0.76935,0.00000,0.00000,0.00000,0.00000,1,0,
07.02 17:06:19:181,702,-0.04224,-0.15402,9.83188,-0.00000,0.00000,-24685744208244365821214720.00000,0.29217,-0.06435,-0.56325,-0.96376,100.59309,0.34012,0.63877,-0.00766,-0.00457,0.76935,0.00000,0.00000,0.00000,0.00000,1,0,
07.02 17:06:19:191,703,-0.05316,-0.16048,9.83765,-0.00000,0.00000,-24685744208244365821214720.00000,0.29416,-0.06333,-0.56372,-0.96297,100.59129,0.33937,0.63878,-0.00765,-0.00457,0.76934,0.00000,0.00000,0.00000,0.00000,1,0,
07.02 17:06:19:201,704,-0.06249,-0.17118,9.83668,-0.00000,0.00000,-24685744208244365821214720.00000,0.29316,-0.06486,-0.56224,-0.96400,100.59011,0.33887,0.63879,-0.00765,-0.00458,0.76933,0.00000,0.00000,0.00000,0.00000,1,0,
07.02 17:06:19:212,705,-0.06862,-0.15805,9.83274,-0.00000,0.00000,-24685744208244365821214720.00000,0.29465,-0.06583,-0.56373,-0.96421,100.59088,0.33964,0.63878,-0.00766,-0.00458,0.76933,0.00000,0.00000,0.00000,0.00000,1,0,
07.02 17:06:19:222,706,-0.06706,-0.17410,9.82576,-0.00000,0.00000,-24685744208244365821214720.00000,0.29464,-0.06587,-0.56174,-0.96447,100.59231,0.34078,0.63877,-0.00766,-0.00458,0.76934,0.00000,0.00000,0.00000,0.00000,1,0,
07.02 17:06:19:231,707,-0.04240,-0.17142,9.83069,-0.00000,0.00000,-24685744208244365821214720.00000,0.29515,-0.06234,-0.56321,-0.96431,100.59545,0.34075,0.63875,-0.00766,-0.00457,0.76936,0.00000,0.00000,0.00000,0.00000,1,0,
07.02 17:06:19:241,708,-0.04867,-0.18851,9.82244,-0.00000,0.00000,-24685744208244365821214720.00000,0.29564,-0.06585,-0.56223,-0.96507,100.60250,0.34130,0.63871,-0.00767,-0.00458,0.76940,0.00000,0.00000,0.00000,0.00000,1,0,
07.02 17:06:19:251,709,-0.06666,-0.16532,9.83134,-0.00000,0.00000,-24685744208244365821214720.00000,0.29514,-0.06588,-0.56124,-0.96583,100.61283,0.34237,0.63864,-0.00768,-0.00458,0.76946,0.00000,0.00000,0.00000,0.00000,1,0,
07.02 17:06:19:261,710,-0.06764,-0.18869,9.83344,-0.00000,0.00000,-24685744208244365821214720.00000,0.29466,-0.06382,-0.56422,-0.96437,100.60777,0.34288,0.63867,-0.00768,-0.00456,0.76943,0.00000,0.00000,0.00000,0.00000,1,0,
07.02 17:06:19:271,711,-0.05404,-0.15247,9.80492,-0.00000,0.00000,-24685744208244365821214720.00000,0.29366,-0.06534,-0.56324,-0.96618,100.61045,0.34331,0.63865,-0.00769,-0.00457,0.76944,0.00000,0.00000,0.00000,0.00000,1,0,
07.02 17:06:19:280,712,-0.05751,-0.17355,9.83200,-0.00000,0.00000,-24685744208244365821214720.00000,0.29266,-0.06585,-0.56275,-0.96718,100.60609,0.34512,0.63868,-0.00771,-0.00457,0.76942,0.00000,0.00000,0.00000,0.00000,1,0,
07.02 17:06:19:291,713,-0.04779,-0.17306,9.83136,-0.00000,0.00000,-24685744208244365821214720.00000,0.29365,-0.06536,-0.56224,-0.96767,100.60764,0.34435,0.63867,-0.00771,-0.00458,0.76943,0.00000,0.00000,0.00000,0.00000,1,0,
07.02 17:06:19:301,714,-0.06357,-0.16003,9.83494,-0.00000,0.00000,-24685744208244365821214720.00000,0.29516,-0.06230,-0.56521,-0.96737,100.60121,0.34407,0.63871,-0.00770,-0.00458,0.76939,0.00000,0.00000,0.00000,0.00000,1,0,
07.02 17:06:19:310,715,-0.05465,-0.16422,9.82073,-0.00000,0.00000,-24685744208244365821214720.00000,0.29663,-0.06284,-0.56271,-0.96759,100.59937,0.34436,0.63873,-0.00771,-0.00458,0.76938,0.00000,0.00000,0.00000,0.00000,1,0,
07.02 17:06:19:321,716,-0.07516,-0.17327,9.83031,-0.00000,0.00000,-24685744208244365821214720.00000,0.29366,-0.06535,-0.56274,-0.96705,100.60072,0.34536,0.63872,-0.00771,-0.00457,0.76939,0.00000,0.00000,0.00000,0.00000,1,0,
07.02 17:06:19:331,717,-0.06176,-0.16637,9.82500,-0.00000,0.00000,-24685744208244365821214720.00000,0.29266,-0.06336,-0.56274,-0.96722,100.60172,0.34546,0.63871,-0.00771,-0.00457,0.76939,0.00000,0.00000,0.00000,0.00000,1,0,
07.02 17:06:19:341,718,-0.05604,-0.17517,9.82330,-0.00000,0.00000,-24685744208244365821214720.00000,0.29515,-0.06531,-0.56472,-0.96742,100.60034,0.34666,0.63872,-0.00772,-0.00456,0.76939,0.00000,0.00000,0.00000,0.00000,1,0,
07.02 17:06:19:351,719,-0.06678,-0.17250,9.83281,-0.00000,0.00000,-24685744208244365821214720.00000,0.29218,-0.06481,-0.56474,-0.96787,100.60105,0.34693,0.63872,-0.00772,-0.00456,0.76939,0.00000,0.00000,0.00000,0.00000,1,0,
07.02 17:06:19:361,720,-0.04783,-0.14819,9.84421,-0.00000,0.00000,-24685744208244365821214720.00000,0.29515,-0.06331,-0.56471,-0.96877,100.59588,0.34749,0.63875,-0.00773,-0.00457,0.76936,0.00000,0.00000,0.00000,0.00000,1,0,
07.02 17:06:19:373,721,-0.08072,-0.17696,9.82919,-0.00000,0.00000,-24685744208244365821214720.00000,0.29415,-0.06384,-0.56323,-0.96872,100.59895,0.34791,0.63873,-0.00774,-0.00456,0.76938,0.00000,0.00000,0.00000,0.00000,1,0,
07.02 17:06:19:381,722,-0.06299,-0.16419,9.83169,-0.00000,0.00000,-24685744208244365821214720.00000,0.29366,-0.06234,-0.56323,-0.96848,100.59738,0.34777,0.63874,-0.00773,-0.00456,0.76937,0.00000,0.00000,0.00000,0.00000,1,0,
07.02 17:06:19:391,723,-0.02842,-0.17232,9.83973,-0.00000,0.00000,-24685744208244365821214720.00000,0.29415,-0.06386,-0.56223,-0.96809,100.59412,0.34750,0.63876,-0.00773,-0.00456,0.76935,0.00000,0.00000,0.00000,0.00000,1,0,
07.02 17:06:19:401,724,-0.03157,-0.14949,9.82724,-0.00000,0.00000,-24685744208244365821214720.00000,0.29466,-0.06532,-0.56422,-0.96735,100.59894,0.34643,0.63873,-0.00772,-0.00456,0.76938,0.00000,0.00000,0.00000,0.00000,1,0,
07.02 17:06:19:411,725,-0.05513,-0.17093,9.83377,-0.00000,0.00000,-24685744208244365821214720.00000,0.29415,-0.06384,-0.56323,-0.96685,100.59876,0.34597,0.63873,-0.00771,-0.00456,0.76938,0.00000,0.00000,0.00000,0.00000,1,0,
07.02 17:06:19:420,726,-0.04886,-0.16729,9.82278,-0.00000,0.00000,-24685744208244365821214720.00000,0.29466,-0.06481,-0.56472,-0.96510,100.60143,0.34656,0.63871,-0.00771,-0.00455,0.76939,0.00000,0.00000,0.00000,0.00000,1,0,
07.02 17:06:19:431,727,-0.05733,-0.15139,9.84044,-0.00000,0.00000,-24685744208244365821214720.00000,0.29217,-0.06436,-0.56275,-0.96473,100.60155,0.34727,0.63871,-0.00771,-0.00454,0.76939,0.00000,0.00000,0.00000,0.00000,1,0,
07.02 17:06:19:442,728,-0.04860,-0.16294,9.82866,-0.00000,0.00000,-24685744208244365821214720.00000,0.29665,-0.06377,-0.56619,-0.96486,100.60439,0.34703,0.63869,-0.00771,-0.00454,0.76941,0.00000,0.00000,0.00000,0.00000,1,0,
07.02 17:06:19:452,729,-0.05085,-0.17026,9.83341,-0.00000,0.00000,-24685744208244365821214720.00000,0.29465,-0.06483,-0.56372,-0.96513,100.60902,0.34758,0.63866,-0.00771,-0.00454,0.76944,0.00000,0.00000,0.00000,0.00000,1,0,
07.02 17:06:19:462,730,-0.03750,-0.17954,9.82037,-0.00000,0.00000,-24685744208244365821214720.00000,0.29267,-0.06531,-0.56474,-0.96508,100.61019,0.34878,0.63865,-0.00772,-0.00454,0.76944,0.00000,0.00000,0.00000,0.00000,1,0,
07.02 17:06:19:471,731,-0.07117,-0.17520,9.83594,-0.00000,0.00000,-24685744208244365821214720.00000,0.29317,-0.06580,-0.56523,-0.96506,100.60569,0.34929,0.63868,-0.00772,-0.00453,0.76942,0.00000,0.00000,0.00000,0.00000,1,0,
07.02 17:06:19:481,732,-0.04965,-0.17690,9.80830,-0.00000,0.00000,-24685744208244365821214720.00000,0.29416,-0.06332,-0.56422,-0.96507,100.62303,0.34877,0.63857,-0.00772,-0.00454,0.76951,0.00000,0.00000,0.00000,0.00000,1,0,
07.02 17:06:19:491,733,-0.05848,-0.15180,9.84698,-0.00000,0.00000,-24685744208244365821214720.00000,0.29466,-0.06431,-0.56472,-0.96516,100.62090,0.34823,0.63858,-0.00772,-0.00454,0.76950,0.00000,0.00000,0.00000,0.00000,1,0,
07.02 17:06:19:501,734,-0.05363,-0.15257,9.82146,-0.00000,0.00000,-24685744208244365821214720.00000,0.29515,-0.06482,-0.56422,-0.96611,100.62006,0.34837,0.63859,-0.00772,-0.00455,0.76950,0.00000,0.00000,0.00000,0.00000,1,0,
07.02 17:06:19:511,735,-0.07161,-0.17853,9.84409,-0.00000,0.00000,-24685744208244365821214720.00000,0.29217,-0.06335,-0.56324,-0.96487,100.61877,0.34847,0.63860,-0.00772,-0.00454,0.76949,0.00000,0.00000,0.00000,0.00000,1,0,
07.02 17:06:19:523,736,-0.05368,-0.16022,9.82871,-0.00000,0.00000,-24685744208244365821214720.00000,0.29565,-0.06433,-0.56371,-0.96472,100.60953,0.34878,0.63866,-0.00772,-0.00453,0.76944,0.00000,0.00000,0.00000,0.00000,1,0,
07.02 17:06:19:532,737,-0.06535,-0.17585,9.81255,-0.00000,0.00000,-24685744208244365821214720.00000,0.29366,-0.06232,-0.56422,-0.96349,100.60971,0.34867,0.63866,-0.00771,-0.00453,0.76944,0.00000,0.00000,0.00000,0.00000,1,0,
07.02 17:06:19:542,738,-0.06175,-0.16163,9.82003,-0.00000,0.00000,-24685744208244365821214720.00000,0.29515,-0.06284,-0.56322,-0.96335,100.59855,0.34991,0.63873,-0.00772,-0.00452,0.76938,0.00000,0.00000,0.00000,0.00000,1,0,
07.02 17:06:19:551,739,-0.04118,-0.18036,9.82082,-0.00000,0.00000,-24685744208244365821214720.00000,0.29514,-0.06435,-0.56272,-0.96446,100.60490,0.34991,0.63869,-0.00773,-0.00453,0.76941,0.00000,0.00000,0.00000,0.00000,1,0,
07.02 17:06:19:560,740,-0.04602,-0.17069,9.84204,-0.00000,0.00000,-24685744208244365821214720.00000,0.29416,-0.06482,-0.56423,-0.96420,100.60448,0.35008,0.63869,-0.00772,-0.00452,0.76941,0.00000,0.00000,0.00000,0.00000,1,0,
07.02 17:06:19:571,741,-0.05058,-0.17373,9.82850,-0.00000,0.00000,-24685744208244365821214720.00000,0.29566,-0.06378,-0.56620,-0.96370,100.60217,0.35023,0.63871,-0.00772,-0.00452,0.76940,0.00000,0.00000,0.00000,0.00000,1,0,
07.02 17:06:19:581,742,-0.06693,-0.16275,9.82914,-0.00000,0.00000,-24685744208244365821214720.00000,0.29614,-0.06282,-0.56420,-0.96311,100.60147,0.35059,0.63871,-0.00772,-0.00451,0.76939,0.00000,0.00000,0.00000,0.00000,1,0,
07.02 17:06:19:592,743,-0.05406,-0.16305,9.84221,-0.00000,0.00000,-24685744208244365821214720.00000,0.29416,-0.06333,-0.56372,-0.96267,100.59624,0.35099,0.63875,-0.00772,-0.00451,0.76936,0.00000,0.00000,0.00000,0.00000,1,0,
07.02 17:06:19:601,744,-0.05852,-0.15568,9.82728,-0.00000,0.00000,-24685744208244365821214720.00000,0.29663,-0.06235,-0.56221,-0.96274,100.59658,0.35085,0.63875,-0.00772,-0.00451,0.76937,0.00000,0.00000,0.00000,0.00000,1,0,
07.02 17:06:19:611,745,-0.06664,-0.16731,9.83579,-0.00000,0.00000,-24685744208244365821214720.00000,0.29268,-0.06478,-0.56623,-0.96382,100.57401,0.35075,0.63890,-0.00773,-0.00451,0.76924,0.00000,0.00000,0.00000,0.00000,1,0,
07.02 17:06:19:621,746,-0.05781,-0.17709,9.82740,-0.00000,0.00000,-24685744208244365821214720.00000,0.29564,-0.06534,-0.56272,-0.96580,100.58270,0.34986,0.63884,-0.00773,-0.00453,0.76929,0.00000,0.00000,0.00000,0.00000,1,0,
07.02 17:06:19:631,747,-0.07166,-0.15687,9.84307,-0.00000,0.00000,-24685744208244365821214720.00000,0.29416,-0.06582,-0.56423,-0.96617,100.58683,0.34971,0.63881,-0.00773,-0.00454,0.76931,0.00000,0.00000,0.00000,0.00000,1,0,
07.02 17:06:19:641,748,-0.05822,-0.14886,9.81956,-0.00000,0.00000,-24685744208244365821214720.00000,0.29665,-0.06679,-0.56521,-0.96451,100.59831,0.34942,0.63873,-0.00772,-0.00453,0.76938,0.00000,0.00000,0.00000,0.00000,1,0,
07.02 17:06:19:651,749,-0.06122,-0.17352,9.83024,-0.00000,0.00000,-24685744208244365821214720.00000,0.29466,-0.06181,-0.56471,-0.96304,100.60564,0.35020,0.63868,-0.00772,-0.00451,0.76942,0.00000,0.00000,0.00000,0.00000,1,0,
07.02 17:06:19:661,750,-0.03388,-0.16223,9.81837,-0.00000,0.00000,-24685744208244365821214720.00000,0.29466,-0.06481,-0.56472,-0.96386,100.59045,0.34945,0.63879,-0.00772,-0.00452,0.76933,0.00000,0.00000,0.00000,0.00000,1,0,
07.02 17:06:19:672,751,-0.06903,-0.16111,9.84605,-0.00000,0.00000,-24685744208244365821214720.00000,0.29515,-0.06481,-0.56472,-0.96343,100.58907,0.35010,0.63880,-0.00772,-0.00452,0.76932,0.00000,0.00000,0.00000,0.00000,1,0,
07.02 17:06:19:681,752,-0.06663,-0.17233,9.83243,-0.00000,0.00000,-24685744208244365821214720.00000,0.29564,-0.06284,-0.56321,-0.96302,100.58838,0.34982,0.63880,-0.00772,-0.00452,0.76932,0.00000,0.00000,0.00000,0.00000,1,0,
07.02 17:06:19:691,753,-0.05080,-0.14473,9.81643,-0.00000,0.00000,-24685744208244365821214720.00000,0.29565,-0.06380,-0.56521,-0.96105,100.59677,0.35022,0.63874,-0.00771,-0.00450,0.76937,0.00000,0.00000,0.00000,0.00000,1,0,
07.02 17:06:19:701,754,-0.04313,-0.15752,9.82793,-0.00000,0.00000,-24685744208244365821214720.00000,0.29366,-0.06634,-0.56324,-0.96029,100.59639,0.35015,0.63875,-0.00770,-0.00450,0.76937,0.00000,0.00000,0.00000,0.00000,1,0,
07.02 17:06:19:711,755,-0.06903,-0.15538,9.81996,-0.00000,0.00000,-24685744208244365821214720.00000,0.29416,-0.06431,-0.56472,-0.95899,100.60271,0.35035,0.63870,-0.00770,-0.00449,0.76940,0.00000,0.00000,0.00000,0.00000,1,0,
07.02 17:06:19:721,756,-0.05219,-0.16545,9.82676,-0.00000,0.00000,-24685744208244365821214720.00000,0.29565,-0.06381,-0.56471,-0.95924,100.60378,0.35089,0.63870,-0.00770,-0.00448,0.76941,0.00000,0.00000,0.00000,0.00000,1,0,
07.02 17:06:19:731,757,-0.06454,-0.15609,9.82735,-0.00000,0.00000,-24685744208244365821214720.00000,0.29218,-0.06381,-0.56523,-0.95869,100.60291,0.35043,0.63870,-0.00770,-0.00448,0.76940,0.00000,0.00000,0.00000,0.00000,1,0,
07.02 17:06:19:742,758,-0.05004,-0.18723,9.81973,-0.00000,0.00000,-24685744208244365821214720.00000,0.29715,-0.06578,-0.56570,-0.95860,100.61207,0.35021,0.63864,-0.00769,-0.00448,0.76945,0.00000,0.00000,0.00000,0.00000,1,0,
07.02 17:06:19:751,759,-0.06507,-0.16860,9.83222,-0.00000,0.00000,-24685744208244365821214720.00000,0.29564,-0.06536,-0.56173,-0.95818,100.60464,0.35106,0.63869,-0.00770,-0.00448,0.76941,0.00000,0.00000,0.00000,0.00000,1,0,
07.02 17:06:19:761,760,-0.06989,-0.16919,9.83100,-0.00000,0.00000,-24685744208244365821214720.00000,0.29565,-0.06481,-0.56421,-0.95673,100.60718,0.35091,0.63867,-0.00769,-0.00447,0.76943,0.00000,0.00000,0.00000,0.00000,1,0,
07.02 17:06:19:770,761,-0.06667,-0.17293,9.82871,-0.00000,0.00000,-24685744208244365821214720.00000,0.29664,-0.06432,-0.56371,-0.95694,100.60500,0.35244,0.63869,-0.00770,-0.00446,0.76941,0.00000,0.00000,0.00000,0.00000,1,0,
07.02 17:06:19:780,762,-0.03772,-0.16814,9.81174,-0.00000,0.00000,-24685744208244365821214720.00000,0.29515,-0.06431,-0.56471,-0.95677,100.60779,0.35279,0.63867,-0.00770,-0.00446,0.76943,0.00000,0.00000,0.00000,0.00000,1,0,
07.02 17:06:19:791,763,-0.04989,-0.17229,9.86626,-0.00000,0.00000,-24685744208244365821214720.00000,0.29467,-0.06228,-0.56620,-0.95686,100.60673,0.35302,0.63868,-0.00770,-0.00446,0.76942,0.00000,0.00000,0.00000,0.00000,1,0,
07.02 17:06:19:801,764,-0.03926,-0.17496,9.78873,-0.00000,0.00000,-24685744208244365821214720.00000,0.29713,-0.06533,-0.56321,-0.95695,100.59869,0.35212,0.63873,-0.00770,-0.00446,0.76938,0.00000,0.00000,0.00000,0.00000,1,0,
07.02 17:06:19:811,765,-0.07048,-0.17184,9.85854,-0.00000,0.00000,-24685744208244365821214720.00000,0.29416,-0.06331,-0.56472,-0.95627,100.59480,0.35355,0.63876,-0.00770,-0.00445,0.76936,0.00000,0.00000,0.00000,0.00000,1,0,
07.02 17:06:19:822,766,-0.06232,-0.15982,9.79104,-0.00000,0.00000,-24685744208244365821214720.00000,0.29565,-0.06432,-0.56421,-0.95664,100.58848,0.35246,0.63880,-0.00770,-0.00446,0.76932,0.00000,0.00000,0.00000,0.00000,1,0,
07.02 17:06:19:831,767,-0.04909,-0.16752,9.87993,-0.00000,0.00000,-24685744208244365821214720.00000,0.29564,-0.06483,-0.56322,-0.95557,100.58866,0.35210,0.63880,-0.00769,-0.00445,0.76932,0.00000,0.00000,0.00000,0.00000,1,0,
07.02 17:06:19:841,768,-0.04685,-0.14398,9.77211,-0.00000,0.00000,-24685744208244365821214720.00000,0.29515,-0.06432,-0.56422,-0.95541,100.57738,0.35271,0.63887,-0.00769,-0.00445,0.76926,0.00000,0.00000,0.00000,0.00000,1,0,
07.02 17:06:19:851,769,-0.08166,-0.16592,9.90262,-0.00000,0.00000,-24685744208244365821214720.00000,0.29465,-0.06333,-0.56372,-0.95479,100.58034,0.35320,0.63885,-0.00769,-0.00444,0.76928,0.00000,0.00000,0.00000,0.00000,1,0,
07.02 17:06:19:861,770,-0.03978,-0.13565,9.79850,-0.00000,0.00000,-24685744208244365821214720.00000,0.29515,-0.06382,-0.56421,-0.95489,100.57444,0.35134,0.63889,-0.00768,-0.00445,0.76924,0.00000,0.00000,0.00000,0.00000,1,0,
07.02 17:06:19:870,771,-0.05830,-0.18680,9.84235,-0.00000,0.00000,-24685744208244365821214720.00000,0.29565,-0.06532,-0.56372,-0.95569,100.57713,0.35187,0.63888,-0.00769,-0.00445,0.76926,0.00000,0.00000,0.00000,0.00000,1,0,
07.02 17:06:19:881,772,-0.06056,-0.20913,9.83303,-0.00000,0.00000,-24685744208244365821214720.00000,0.29367,-0.06431,-0.56473,-0.95497,100.57503,0.35154,0.63889,-0.00768,-0.00445,0.76925,0.00000,0.00000,0.00000,0.00000,1,0,
07.02 17:06:19:892,773,-0.04505,-0.15713,9.83498,-0.00000,0.00000,-24685744208244365821214720.00000,0.29415,-0.06487,-0.56174,-0.95414,100.57108,0.35124,0.63892,-0.00768,-0.00445,0.76922,0.00000,0.00000,0.00000,0.00000,1,0,
07.02 17:06:19:902,774,-0.05403,-0.16692,9.80971,-0.00000,0.00000,-24685744208244365821214720.00000,0.29565,-0.06383,-0.56371,-0.95286,100.56809,0.35156,0.63894,-0.00767,-0.00444,0.76921,0.00000,0.00000,0.00000,0.00000,1,0,
07.02 17:06:19:911,775,-0.08680,-0.16540,9.83579,-0.00000,0.00000,-24685744208244365821214720.00000,0.29565,-0.06432,-0.56421,-0.95378,100.56838,0.35213,0.63894,-0.00768,-0.00444,0.76921,0.00000,0.00000,0.00000,0.00000,1,0,
07.02 17:06:19:920,776,-0.06746,-0.16142,9.83463,-0.00000,0.00000,-24685744208244365821214720.00000,0.29366,-0.06384,-0.56323,-0.95259,100.56664,0.35006,0.63895,-0.00766,-0.00444,0.76920,0.00000,0.00000,0.00000,0.00000,1,0,
07.02 17:06:19:931,777,-0.04907,-0.18145,9.81562,-0.00000,0.00000,-24685744208244365821214720.00000,0.29416,-0.06380,-0.56522,-0.95345,100.56716,0.35056,0.63894,-0.00767,-0.00445,0.76920,0.00000,0.00000,0.00000,0.00000,1,0,
07.02 17:06:19:942,778,-0.04830,-0.17783,9.80416,-0.00000,0.00000,-24685744208244365821214720.00000,0.29714,-0.06480,-0.56470,-0.95403,100.56924,0.35056,0.63893,-0.00767,-0.00445,0.76921,0.00000,0.00000,0.00000,0.00000,1,0,
07.02 17:06:19:952,779,-0.05510,-0.17953,9.83570,-0.00000,0.00000,-24685744208244365821214720.00000,0.29664,-0.06281,-0.56420,-0.95411,100.56926,0.34967,0.63893,-0.00767,-0.00445,0.76921,0.00000,0.00000,0.00000,0.00000,1,0,
07.02 17:06:19:961,780,-0.04116,-0.15798,9.82383,-0.00000,0.00000,-24685744208244365821214720.00000,0.29565,-0.06431,-0.56471,-0.95259,100.54666,0.35069,0.63908,-0.00767,-0.00444,0.76909,0.00000,0.00000,0.00000,0.00000,1,0,
07.02 17:06:19:973,781,-0.06048,-0.16275,9.83518,-0.00000,0.00000,-24685744208244365821214720.00000,0.29565,-0.06481,-0.56421,-0.95199,100.54559,0.35244,0.63909,-0.00767,-0.00442,0.76908,0.00000,0.00000,0.00000,0.00000,1,0,
07.02 17:06:19:981,782,-0.05068,-0.16024,9.83067,-0.00000,0.00000,-24685744208244365821214720.00000,0.29366,-0.06333,-0.56373,-0.95209,100.54779,0.35197,0.63907,-0.00767,-0.00443,0.76909,0.00000,0.00000,0.00000,0.00000,1,0,
07.02 17:06:19:991,783,-0.05428,-0.11829,9.82614,-0.00000,0.00000,-24685744208244365821214720.00000,0.29365,-0.06435,-0.56274,-0.95268,100.54553,0.35015,0.63909,-0.00766,-0.00444,0.76908,0.00000,0.00000,0.00000,0.00000,1,0,
07.02 17:06:20:001,784,-0.04161,-0.14779,9.80213,-0.00000,0.00000,-24685744208244365821214720.00000,0.29366,-0.06585,-0.56274,-0.95317,100.54670,0.35028,0.63908,-0.00767,-0.00444,0.76909,0.00000,0.00000,0.00000,0.00000,1,0,
07.02 17:06:20:011,785,-0.08235,-0.15873,9.85451,-0.00000,0.00000,-24685744208244365821214720.00000,0.29267,-0.06531,-0.56474,-0.95266,100.54931,0.35050,0.63906,-0.00767,-0.00444,0.76910,0.00000,0.00000,0.00000,0.00000,1,0,
07.02 17:06:20:020,786,-0.02798,-0.18426,9.81679,-0.00000,0.00000,-24685744208244365821214720.00000,0.29466,-0.06681,-0.56473,-0.95121,100.54346,0.35087,0.63910,-0.00766,-0.00443,0.76907,0.00000,0.00000,0.00000,0.00000,1,0,
07.02 17:06:20:031,787,-0.04213,-0.19050,9.87604,-0.00000,0.00000,-24685744208244365821214720.00000,0.29466,-0.06531,-0.56472,-0.95199,100.52817,0.35158,0.63921,-0.00767,-0.00443,0.76899,0.00000,0.00000,0.00000,0.00000,1,0,
07.02 17:06:20:042,788,-0.05885,-0.16306,9.80470,-0.00000,0.00000,-24685744208244365821214720.00000,0.29416,-0.06633,-0.56373,-0.95225,100.52903,0.35194,0.63920,-0.00767,-0.00443,0.76899,0.00000,0.00000,0.00000,0.00000,1,0,
07.02 17:06:20:051,789,-0.05585,-0.16570,9.86905,-0.00000,0.00000,-24685744208244365821214720.00000,0.29465,-0.06334,-0.56322,-0.95359,100.52570,0.35178,0.63922,-0.00768,-0.00444,0.76897,0.00000,0.00000,0.00000,0.00000,1,0,
07.02 17:06:20:061,790,-0.05508,-0.15982,9.79281,-0.00000,0.00000,-24685744208244365821214720.00000,0.29367,-0.06431,-0.56473,-0.95352,100.52564,0.35283,0.63922,-0.00769,-0.00443,0.76897,0.00000,0.00000,0.00000,0.00000,1,0,
07.02 17:06:20:071,791,-0.06360,-0.16758,9.84735,-0.00000,0.00000,-24685744208244365821214720.00000,0.29365,-0.06536,-0.56224,-0.95390,100.52035,0.35325,0.63926,-0.00769,-0.00443,0.76894,0.00000,0.00000,0.00000,0.00000,1,0,
07.02 17:06:20:081,792,-0.03574,-0.16055,9.81536,-0.00000,0.00000,-24685744208244365821214720.00000,0.29417,-0.06429,-0.56572,-0.95378,100.52724,0.35115,0.63921,-0.00768,-0.00444,0.76898,0.00000,0.00000,0.00000,0.00000,1,0,
07.02 17:06:20:091,793,-0.05240,-0.16743,9.84478,-0.00000,0.00000,-24685744208244365821214720.00000,0.29566,-0.06578,-0.56571,-0.95215,100.51971,0.35202,0.63926,-0.00767,-0.00443,0.76894,0.00000,0.00000,0.00000,0.00000,1,0,
07.02 17:06:20:101,794,-0.04301,-0.15097,9.81155,-0.00000,0.00000,-24685744208244365821214720.00000,0.29614,-0.06583,-0.56322,-0.95100,100.52448,0.35204,0.63923,-0.00767,-0.00442,0.76896,0.00000,0.00000,0.00000,0.00000,1,0,
07.02 17:06:20:111,795,-0.04872,-0.16562,9.85587,-0.00000,0.00000,-24685744208244365821214720.00000,0.29366,-0.06585,-0.56274,-0.95062,100.52216,0.35152,0.63925,-0.00766,-0.00442,0.76895,0.00000,0.00000,0.00000,0.00000,1,0,
07.02 17:06:20:122,796,-0.06251,-0.15029,9.80976,-0.00000,0.00000,-24685744208244365821214720.00000,0.29514,-0.06535,-0.56273,-0.95020,100.52013,0.35059,0.63926,-0.00765,-0.00442,0.76894,0.00000,0.00000,0.00000,0.00000,1,0,
