Time,Counter,ax,ay,az,gx,gy,gz,mx,my,mz,roll,yaw,pitch,q0,q1,q2,q3,Rest,Mag Disturbance,
06.29 17:03:26:793,37478,0.06204,-0.05541,9.80818,0.00000,0.00000,40577807906309280423747545726976.00000,0.39762,-0.16572,-0.69665,-0.39855,110.51746,-0.32528,0.56987,0.00035,-0.00448,0.82172,0,0,
06.29 17:03:26:793,37479,0.08375,-0.07280,9.79371,0.00000,0.00000,40577807906309280423747545726976.00000,0.39811,-0.17175,-0.69467,-0.39904,110.51766,-0.32545,0.56987,0.00035,-0.00448,0.82172,0,0,
06.29 17:03:26:794,37480,0.06645,-0.06545,9.81054,0.00000,0.00000,40577807906309280423747545726976.00000,0.39614,-0.16718,-0.69866,-0.39876,110.51797,-0.32570,0.56987,0.00035,-0.00448,0.82172,0,0,
06.29 17:03:26:806,37481,0.06320,-0.05041,9.79285,0.00000,0.00000,0.00000,0.40059,-0.16974,-0.69515,-0.39874,110.51835,-0.32511,0.56987,0.00035,-0.00448,0.82172,1,0,
06.29 17:03:26:807,37482,0.08373,-0.04997,9.79781,0.00000,0.00000,0.00000,0.39812,-0.16673,-0.69615,-0.39903,110.51870,-0.32538,0.56987,0.00035,-0.00448,0.82173,1,0,
06.29 17:03:26:815,37483,0.07282,-0.05551,9.80830,0.00000,0.00000,0.00000,0.39663,-0.16923,-0.69617,-0.39828,110.51994,-0.32637,0.56986,0.00036,-0.00448,0.82173,1,0,
06.29 17:03:26:826,37484,0.07242,-0.06031,9.79405,0.00000,0.00000,0.00000,0.39812,-0.16871,-0.69715,-0.39787,110.52065,-0.32652,0.56985,0.00036,-0.00448,0.82174,1,0,
06.29 17:03:26:836,37485,0.08951,-0.05321,9.78682,0.00000,0.00000,0.00000,0.39763,-0.16670,-0.69765,-0.39897,110.52089,-0.32755,0.56985,0.00036,-0.00449,0.82174,1,0,
06.29 17:03:26:845,37486,0.07683,-0.06519,9.79576,0.00000,0.00000,0.00000,0.39613,-0.16772,-0.69667,-0.39946,110.52065,-0.32746,0.56985,0.00036,-0.00449,0.82174,1,0,
06.29 17:03:26:856,37487,0.08070,-0.05476,9.80182,0.00000,0.00000,0.00000,0.39613,-0.16824,-0.69567,-0.39997,110.52077,-0.32773,0.56985,0.00036,-0.00450,0.82174,1,0,
06.29 17:03:26:864,37488,0.08697,-0.05084,9.79137,0.00000,0.00000,0.00000,0.39664,-0.16869,-0.69816,-0.40160,110.52090,-0.32835,0.56985,0.00036,-0.00451,0.82174,1,0,
06.29 17:03:26:875,37489,0.06825,-0.04147,9.80248,0.00000,0.00000,0.00000,0.39812,-0.17072,-0.69616,-0.40114,110.52007,-0.32947,0.56986,0.00037,-0.00451,0.82173,1,0,
06.29 17:03:26:885,37490,0.07696,-0.06114,9.78329,0.00000,0.00000,0.00000,0.39614,-0.16920,-0.69767,-0.40038,110.52038,-0.32913,0.56985,0.00037,-0.00451,0.82173,1,0,
06.29 17:03:26:895,37491,0.06908,-0.05570,9.80670,0.00000,0.00000,0.00000,0.39564,-0.17023,-0.69618,-0.40174,110.52122,-0.32901,0.56985,0.00036,-0.00452,0.82174,1,0,
06.29 17:03:26:904,37492,0.06118,-0.05690,9.79998,0.00000,0.00000,0.00000,0.39714,-0.16718,-0.69865,-0.40223,110.52218,-0.32871,0.56984,0.00036,-0.00452,0.82174,1,0,
06.29 17:03:26:915,37493,0.06675,-0.06821,9.80046,0.00000,0.00000,0.00000,0.39810,-0.16828,-0.69367,-0.40036,110.52171,-0.32965,0.56984,0.00037,-0.00451,0.82174,1,0,
06.29 17:03:26:925,37494,0.07064,-0.05721,9.78658,0.00000,0.00000,0.00000,0.39712,-0.16823,-0.69616,-0.40122,110.52248,-0.33084,0.56984,0.00038,-0.00452,0.82174,1,0,
06.29 17:03:26:935,37495,0.08771,-0.05054,9.80680,0.00000,0.00000,0.00000,0.39663,-0.16820,-0.69766,-0.40226,110.52277,-0.32988,0.56984,0.00037,-0.00453,0.82175,1,0,
06.29 17:03:26:945,37496,0.07914,-0.04182,9.78692,0.00000,0.00000,0.00000,0.39563,-0.16724,-0.69567,-0.40308,110.52315,-0.32855,0.56983,0.00035,-0.00452,0.82175,1,0,
06.29 17:03:26:955,37497,0.06830,-0.06567,9.79548,0.00000,0.00000,0.00000,0.39663,-0.16820,-0.69766,-0.40408,110.52386,-0.32839,0.56983,0.00035,-0.00453,0.82175,1,0,
06.29 17:03:26:965,37498,0.08916,-0.05242,9.80590,0.00000,0.00000,0.00000,0.39663,-0.16820,-0.69766,-0.40400,110.52335,-0.32789,0.56983,0.00034,-0.00453,0.82175,1,0,
06.29 17:03:26:974,37499,0.07510,-0.05250,9.78830,0.00000,0.00000,0.00000,0.39514,-0.16974,-0.69569,-0.40462,110.52315,-0.32875,0.56983,0.00035,-0.00454,0.82175,1,0,
06.29 17:03:26:985,37500,0.07999,-0.05313,9.78997,0.00000,0.00000,0.00000,0.39563,-0.16676,-0.69517,-0.40413,110.52319,-0.32744,0.56983,0.00034,-0.00453,0.82175,1,0,
06.29 17:03:26:995,37501,0.07563,-0.02261,9.79140,0.00000,0.00000,0.00000,0.39514,-0.16822,-0.69668,-0.40440,110.52323,-0.32685,0.56983,0.00033,-0.00453,0.82175,1,0,
06.29 17:03:27:005,37502,0.09327,-0.03609,9.81331,0.00000,0.00000,0.00000,0.39663,-0.16822,-0.69666,-0.40602,110.52377,-0.32730,0.56983,0.00033,-0.00454,0.82175,1,0,
06.29 17:03:27:015,37503,0.06584,-0.05701,9.78675,0.00000,0.00000,0.00000,0.39664,-0.17070,-0.69767,-0.40562,110.52328,-0.32727,0.56983,0.00033,-0.00454,0.82175,1,0,
06.29 17:03:27:025,37504,0.05777,-0.05069,9.79462,0.00000,0.00000,0.00000,0.39663,-0.16672,-0.69666,-0.40244,110.52361,-0.32660,0.56983,0.00034,-0.00451,0.82175,1,0,
06.29 17:03:27:036,37505,0.07245,-0.04032,9.80220,0.00000,0.00000,0.00000,0.39613,-0.16875,-0.69518,-0.40285,110.52356,-0.32714,0.56983,0.00034,-0.00452,0.82175,1,0,
06.29 17:03:27:045,37506,0.07143,-0.06437,9.79238,0.00000,0.00000,0.00000,0.39613,-0.17075,-0.69518,-0.40270,110.52284,-0.32754,0.56984,0.00035,-0.00452,0.82175,1,0,
06.29 17:03:27:056,37507,0.06619,-0.03419,9.81057,0.00000,0.00000,0.00000,0.39713,-0.16620,-0.69765,-0.40148,110.52312,-0.32815,0.56983,0.00036,-0.00451,0.82175,1,0,
06.29 17:03:27:065,37508,0.08146,-0.05513,9.79865,0.00000,0.00000,0.00000,0.39662,-0.16976,-0.69468,-0.40399,110.52309,-0.32886,0.56983,0.00035,-0.00453,0.82175,1,0,
06.29 17:03:27:075,37509,0.09728,-0.04043,9.79772,0.00000,0.00000,0.00000,0.39611,-0.16780,-0.69269,-0.40443,110.52281,-0.32951,0.56984,0.00035,-0.00454,0.82175,1,0,
06.29 17:03:27:085,37510,0.08128,-0.05434,9.78651,0.00000,0.00000,0.00000,0.39662,-0.17025,-0.69518,-0.40287,110.52290,-0.32954,0.56983,0.00036,-0.00453,0.82175,1,0,
06.29 17:03:27:095,37511,0.10382,-0.05506,9.80265,0.00000,0.00000,0.00000,0.39612,-0.16577,-0.69467,-0.40295,110.52301,-0.33009,0.56983,0.00036,-0.00453,0.82175,1,0,
06.29 17:03:27:106,37512,0.09586,-0.05355,9.79638,0.00000,0.00000,0.00000,0.39711,-0.17027,-0.69418,-0.40166,110.52241,-0.32989,0.56984,0.00037,-0.00452,0.82174,1,0,
06.29 17:03:27:115,37513,0.07207,-0.06375,9.79042,0.00000,0.00000,0.00000,0.39463,-0.16780,-0.69320,-0.40290,110.52261,-0.32970,0.56984,0.00036,-0.00453,0.82175,1,0,
06.29 17:03:27:125,37514,0.07846,-0.05011,9.80504,0.00000,0.00000,0.00000,0.39911,-0.16922,-0.69615,-0.40303,110.52155,-0.32955,0.56984,0.00036,-0.00453,0.82174,1,0,
06.29 17:03:27:135,37515,0.06488,-0.04661,9.80306,0.00000,0.00000,0.00000,0.39313,-0.16932,-0.69222,-0.40168,110.52171,-0.32878,0.56984,0.00036,-0.00452,0.82174,1,0,
06.29 17:03:27:146,37516,0.03627,-0.04994,9.78649,0.00000,0.00000,0.00000,0.39662,-0.16725,-0.69517,-0.40040,110.52086,-0.32866,0.56985,0.00037,-0.00451,0.82174,1,0,
06.29 17:03:27:156,37517,0.05833,-0.06071,9.79283,0.00000,0.00000,0.00000,0.39662,-0.16726,-0.69467,-0.40129,110.52175,-0.32885,0.56984,0.00036,-0.00451,0.82174,1,0,
06.29 17:03:27:165,37518,0.09491,-0.06214,9.79450,0.00000,0.00000,0.00000,0.39562,-0.17028,-0.69369,-0.40100,110.52110,-0.32897,0.56985,0.00036,-0.00451,0.82174,1,0,
06.29 17:03:27:175,37519,0.09115,-0.05230,9.79340,0.00000,0.00000,0.00000,0.39811,-0.16824,-0.69566,-0.40076,110.52137,-0.32924,0.56985,0.00037,-0.00451,0.82174,1,0,
06.29 17:03:27:186,37520,0.07891,-0.06960,9.81181,0.00000,0.00000,0.00000,0.39564,-0.16822,-0.69667,-0.39958,110.52091,-0.32888,0.56985,0.00037,-0.00450,0.82174,1,0,
06.29 17:03:27:195,37521,0.08472,-0.05548,9.78177,0.00000,0.00000,0.00000,0.39811,-0.17024,-0.69517,-0.39911,110.52176,-0.32832,0.56984,0.00037,-0.00449,0.82174,1,0,
06.29 17:03:27:205,37522,0.06843,-0.06057,9.80840,0.00000,0.00000,0.00000,0.39663,-0.16723,-0.69616,-0.39898,110.52190,-0.32842,0.56984,0.00037,-0.00449,0.82174,1,0,
06.29 17:03:27:215,37523,0.07678,-0.08497,9.80008,0.00000,0.00000,0.00000,0.39564,-0.17022,-0.69668,-0.39930,110.52233,-0.32720,0.56984,0.00036,-0.00449,0.82174,1,0,
06.29 17:03:27:224,37524,0.07824,-0.04081,9.78520,0.00000,0.00000,0.00000,0.39810,-0.16879,-0.69317,-0.39802,110.52116,-0.32687,0.56985,0.00036,-0.00448,0.82174,1,0,
06.29 17:03:27:236,37525,0.07090,-0.04980,9.78961,0.00000,0.00000,0.00000,0.39614,-0.16771,-0.69716,-0.39792,110.52048,-0.32643,0.56985,0.00036,-0.00448,0.82174,1,0,
06.29 17:03:27:246,37526,0.06283,-0.06712,9.78973,0.00000,0.00000,0.00000,0.39860,-0.16877,-0.69366,-0.39895,110.52107,-0.32632,0.56985,0.00036,-0.00448,0.82174,1,0,
06.29 17:03:27:256,37527,0.07389,-0.07981,9.79283,0.00000,0.00000,0.00000,0.39414,-0.16777,-0.69469,-0.39864,110.52032,-0.32538,0.56985,0.00035,-0.00448,0.82173,1,0,
06.29 17:03:27:265,37528,0.05791,-0.06611,9.80122,0.00000,0.00000,0.00000,0.39564,-0.16872,-0.69667,-0.39943,110.52165,-0.32497,0.56984,0.00034,-0.00448,0.82174,1,0,
06.29 17:03:27:275,37529,0.08016,-0.04643,9.79219,0.00000,0.00000,0.00000,0.40011,-0.17017,-0.69864,-0.39820,110.52163,-0.32561,0.56984,0.00035,-0.00447,0.82174,1,0,
06.29 17:03:27:286,37530,0.08597,-0.06172,9.79300,0.00000,0.00000,0.00000,0.39911,-0.17023,-0.69566,-0.39778,110.52106,-0.32539,0.56985,0.00036,-0.00447,0.82174,1,0,
06.29 17:03:27:296,37531,0.09677,-0.05503,9.78727,0.00000,0.00000,0.00000,0.39612,-0.16928,-0.69369,-0.39915,110.52122,-0.32491,0.56985,0.00035,-0.00448,0.82174,1,0,
06.29 17:03:27:306,37532,0.07405,-0.05711,9.77950,0.00000,0.00000,0.00000,0.39811,-0.16776,-0.69466,-0.39798,110.52190,-0.32400,0.56984,0.00034,-0.00447,0.82174,1,0,
06.29 17:03:27:315,37533,0.06090,-0.05608,9.79464,0.00000,0.00000,0.00000,0.39761,-0.16978,-0.69368,-0.39700,110.52127,-0.32266,0.56985,0.00034,-0.00445,0.82174,1,0,
06.29 17:03:27:326,37534,0.07625,-0.04066,9.80198,0.00000,0.00000,0.00000,0.39711,-0.16829,-0.69318,-0.39881,110.52234,-0.32267,0.56984,0.00033,-0.00446,0.82174,1,0,
06.29 17:03:27:335,37535,0.07753,-0.03496,9.79674,0.00000,0.00000,0.00000,0.39761,-0.16926,-0.69467,-0.39663,110.52222,-0.32270,0.56984,0.00034,-0.00445,0.82174,1,0,
06.29 17:03:27:345,37536,0.07188,-0.05949,9.78768,0.00000,0.00000,0.00000,0.39712,-0.16825,-0.69517,-0.39523,110.52156,-0.32299,0.56984,0.00035,-0.00444,0.82174,1,0,
06.29 17:03:27:355,37537,0.07111,-0.06358,9.80354,0.00000,0.00000,0.00000,0.39564,-0.16921,-0.69717,-0.39466,110.52187,-0.32236,0.56984,0.00035,-0.00443,0.82174,1,0,
06.29 17:03:27:365,37538,0.06197,-0.05466,9.80263,0.00000,0.00000,0.00000,0.39562,-0.16628,-0.69418,-0.39423,110.52079,-0.32221,0.56985,0.00035,-0.00443,0.82174,1,0,
06.29 17:03:27:375,37539,0.06674,-0.05459,9.78592,0.00000,0.00000,0.00000,0.39662,-0.17025,-0.69518,-0.39540,110.52050,-0.32282,0.56985,0.00035,-0.00444,0.82174,1,0,
06.29 17:03:27:385,37540,0.07836,-0.04354,9.80704,0.00000,0.00000,0.00000,0.39563,-0.16625,-0.69567,-0.39682,110.52185,-0.32187,0.56984,0.00033,-0.00445,0.82174,1,0,
06.29 17:03:27:395,37541,0.04745,-0.06382,9.79614,0.00000,0.00000,0.00000,0.39464,-0.16775,-0.69568,-0.39648,110.52225,-0.32136,0.56984,0.00033,-0.00444,0.82174,1,0,
06.29 17:03:27:405,37542,0.07242,-0.06500,9.81653,0.00000,0.00000,0.00000,0.39514,-0.16923,-0.69618,-0.39685,110.52252,-0.32210,0.56984,0.00034,-0.00445,0.82175,1,0,
06.29 17:03:27:415,37543,0.06569,-0.05900,9.81131,0.00000,0.00000,0.00000,0.39513,-0.16677,-0.69468,-0.39644,110.52213,-0.32315,0.56984,0.00035,-0.00445,0.82174,1,0,
06.29 17:03:27:425,37544,0.06680,-0.04345,9.79617,0.00000,0.00000,0.00000,0.39812,-0.16773,-0.69615,-0.39581,110.52188,-0.32397,0.56984,0.00035,-0.00445,0.82174,1,0,
06.29 17:03:27:436,37545,0.08382,-0.06708,9.79512,0.00000,0.00000,0.00000,0.39812,-0.16772,-0.69665,-0.39741,110.52200,-0.32404,0.56984,0.00035,-0.00446,0.82174,1,0,
06.29 17:03:27:444,37546,0.07669,-0.06014,9.78594,0.00000,0.00000,0.00000,0.39910,-0.16975,-0.69466,-0.39749,110.52252,-0.32356,0.56984,0.00034,-0.00446,0.82175,1,0,
06.29 17:03:27:456,37547,0.08597,-0.05337,9.78489,0.00000,0.00000,0.00000,0.39513,-0.16826,-0.69518,-0.39632,110.52158,-0.32374,0.56984,0.00035,-0.00445,0.82174,1,0,
06.29 17:03:27:465,37548,0.09836,-0.06106,9.79340,0.00000,0.00000,0.00000,0.39662,-0.16775,-0.69517,-0.39679,110.52116,-0.32346,0.56985,0.00035,-0.00445,0.82174,1,0,
06.29 17:03:27:475,37549,0.06499,-0.05408,9.80327,0.00000,0.00000,0.00000,0.39910,-0.17226,-0.69417,-0.39587,110.52023,-0.32213,0.56985,0.00034,-0.00444,0.82173,1,0,
06.29 17:03:27:485,37550,0.06135,-0.07462,9.79765,0.00000,0.00000,0.00000,0.39761,-0.16876,-0.69467,-0.39598,110.52141,-0.32128,0.56985,0.00033,-0.00444,0.82174,1,0,
06.29 17:03:27:496,37551,0.05973,-0.05108,9.79898,0.00000,0.00000,0.00000,0.39761,-0.17026,-0.69467,-0.39722,110.52142,-0.32095,0.56985,0.00033,-0.00444,0.82174,1,0,
06.29 17:03:27:505,37552,0.06173,-0.07093,9.81546,0.00000,0.00000,0.00000,0.39614,-0.16670,-0.69766,-0.39709,110.52201,-0.31988,0.56984,0.00032,-0.00444,0.82174,1,0,
06.29 17:03:27:516,37553,0.08615,-0.06869,9.79145,0.00000,0.00000,0.00000,0.39713,-0.16920,-0.69766,-0.39819,110.52126,-0.32118,0.56985,0.00032,-0.00445,0.82174,1,0,
06.29 17:03:27:524,37554,0.06597,-0.05810,9.79977,0.00000,0.00000,0.00000,0.39713,-0.16922,-0.69666,-0.39946,110.52142,-0.32204,0.56985,0.00032,-0.00447,0.82174,1,0,
06.29 17:03:27:535,37555,0.06248,-0.06577,9.79893,0.00000,0.00000,0.00000,0.39366,-0.16721,-0.69768,-0.39884,110.52022,-0.32296,0.56985,0.00033,-0.00447,0.82173,1,0,
06.29 17:03:27:545,37556,0.07269,-0.05662,9.79278,0.00000,0.00000,0.00000,0.39562,-0.16827,-0.69418,-0.39833,110.52129,-0.32361,0.56985,0.00034,-0.00447,0.82174,1,0,
06.29 17:03:27:556,37557,0.08201,-0.04771,9.78997,0.00000,0.00000,0.00000,0.39463,-0.16779,-0.69369,-0.39914,110.52185,-0.32345,0.56984,0.00033,-0.00447,0.82174,1,0,
06.29 17:03:27:565,37558,0.07584,-0.05326,9.79297,0.00000,0.00000,0.00000,0.39612,-0.16876,-0.69468,-0.39894,110.52182,-0.32140,0.56984,0.00032,-0.00446,0.82174,1,0,
06.29 17:03:27:576,37559,0.09420,-0.04102,9.80458,0.00000,0.00000,0.00000,0.39712,-0.16925,-0.69517,-0.39961,110.52293,-0.32047,0.56983,0.00031,-0.00446,0.82175,1,0,
06.29 17:03:27:586,37560,0.09207,-0.06086,9.79946,0.00000,0.00000,0.00000,0.39416,-0.16920,-0.69818,-0.40094,110.52387,-0.32025,0.56983,0.00030,-0.00447,0.82175,1,0,
06.29 17:03:27:596,37561,0.08458,-0.04868,9.78737,0.00000,0.00000,0.00000,0.39562,-0.16829,-0.69319,-0.39984,110.52409,-0.32051,0.56983,0.00031,-0.00446,0.82175,1,0,
06.29 17:03:27:605,37562,0.07147,-0.04124,9.80299,0.00000,0.00000,0.00000,0.39514,-0.16773,-0.69667,-0.39953,110.52478,-0.32190,0.56982,0.00032,-0.00447,0.82176,1,0,
06.29 17:03:27:616,37563,0.07189,-0.05660,9.79321,0.00000,0.00000,0.00000,0.39414,-0.16875,-0.69569,-0.39944,110.52481,-0.32218,0.56982,0.00032,-0.00447,0.82176,1,0,
06.29 17:03:27:625,37564,0.05934,-0.05792,9.80194,0.00000,0.00000,0.00000,0.39760,-0.16830,-0.69268,-0.39936,110.52466,-0.32212,0.56982,0.00032,-0.00447,0.82176,1,0,
06.29 17:03:27:635,37565,0.06374,-0.07156,9.81023,0.00000,0.00000,0.00000,0.39313,-0.16731,-0.69271,-0.40204,110.52425,-0.32196,0.56983,0.00031,-0.00448,0.82175,1,0,
06.29 17:03:27:645,37566,0.07344,-0.05696,9.79469,0.00000,0.00000,0.00000,0.39711,-0.16778,-0.69367,-0.40321,110.52413,-0.32232,0.56983,0.00031,-0.00449,0.82175,1,0,
06.29 17:03:27:656,37567,0.06983,-0.06389,9.78954,0.00000,0.00000,0.00000,0.39513,-0.16926,-0.69469,-0.40262,110.52496,-0.32164,0.56982,0.00030,-0.00449,0.82176,1,0,
06.29 17:03:27:665,37568,0.05709,-0.04412,9.81157,0.00000,0.00000,0.00000,0.39763,-0.17020,-0.69766,-0.40259,110.52456,-0.32229,0.56982,0.00031,-0.00449,0.82176,1,0,
06.29 17:03:27:675,37569,0.06730,-0.05305,9.79583,0.00000,0.00000,0.00000,0.39662,-0.16727,-0.69417,-0.40160,110.52440,-0.32236,0.56982,0.00031,-0.00448,0.82175,1,0,
06.29 17:03:27:685,37570,0.07154,-0.04551,9.79519,0.00000,0.00000,0.00000,0.39612,-0.16776,-0.69468,-0.40148,110.52410,-0.32179,0.56983,0.00031,-0.00448,0.82175,1,0,
06.29 17:03:27:696,37571,0.07170,-0.07133,9.79848,0.00000,0.00000,0.00000,0.39812,-0.16772,-0.69665,-0.40364,110.52382,-0.32228,0.56983,0.00030,-0.00450,0.82175,1,0,
06.29 17:03:27:706,37572,0.07031,-0.03901,9.79211,0.00000,0.00000,0.00000,0.39661,-0.16779,-0.69318,-0.40265,110.52353,-0.32341,0.56983,0.00032,-0.00450,0.82175,1,0,
06.29 17:03:27:718,37573,0.08165,-0.03647,9.81095,0.00000,0.00000,0.00000,0.39562,-0.16727,-0.69418,-0.40180,110.52333,-0.32214,0.56983,0.00031,-0.00448,0.82175,1,0,
06.29 17:03:27:726,37574,0.06865,-0.06544,9.80838,0.00000,0.00000,0.00000,0.39711,-0.17029,-0.69318,-0.40129,110.52422,-0.32208,0.56983,0.00031,-0.00448,0.82175,1,0,
06.29 17:03:27:736,37575,0.06605,-0.05991,9.79354,0.00000,0.00000,0.00000,0.39612,-0.16627,-0.69417,-0.39966,110.52465,-0.32287,0.56982,0.00033,-0.00447,0.82176,1,0,
06.29 17:03:27:746,37576,0.08717,-0.06269,9.79335,0.00000,0.00000,0.00000,0.39612,-0.16826,-0.69468,-0.40187,110.52520,-0.32326,0.56982,0.00032,-0.00449,0.82176,1,0,
06.29 17:03:27:755,37577,0.08073,-0.04306,9.79333,0.00000,0.00000,0.00000,0.39414,-0.16927,-0.69470,-0.40200,110.52557,-0.32370,0.56982,0.00032,-0.00449,0.82176,1,0,
06.29 17:03:27:766,37578,0.10502,-0.05519,9.80358,0.00000,0.00000,0.00000,0.39563,-0.16726,-0.69468,-0.40191,110.52576,-0.32411,0.56981,0.00033,-0.00449,0.82176,1,0,
06.29 17:03:27:774,37579,0.05783,-0.05370,9.80482,0.00000,0.00000,0.00000,0.39563,-0.17026,-0.69469,-0.40012,110.52546,-0.32397,0.56982,0.00033,-0.00448,0.82176,1,0,
06.29 17:03:27:786,37580,0.06425,-0.03960,9.78806,0.00000,0.00000,0.00000,0.39464,-0.16474,-0.69617,-0.40059,110.52552,-0.32351,0.56982,0.00033,-0.00448,0.82176,1,0,
06.29 17:03:27:797,37581,0.08164,-0.04130,9.79776,0.00000,0.00000,0.00000,0.39712,-0.16522,-0.69665,-0.39816,110.52643,-0.32412,0.56981,0.00034,-0.00447,0.82176,1,0,
06.29 17:03:27:805,37582,0.07640,-0.05942,9.79774,0.00000,0.00000,0.00000,0.39562,-0.16977,-0.69419,-0.39832,110.52619,-0.32413,0.56981,0.00034,-0.00447,0.82176,1,0,
06.29 17:03:27:815,37583,0.06489,-0.06828,9.82363,0.00000,0.00000,0.00000,0.39612,-0.16976,-0.69468,-0.39678,110.52639,-0.32323,0.56981,0.00034,-0.00445,0.82176,1,0,
06.29 17:03:27:826,37584,0.06666,-0.05512,9.79257,0.00000,0.00000,0.00000,0.39712,-0.16873,-0.69617,-0.39632,110.52664,-0.32216,0.56981,0.00034,-0.00444,0.82177,1,0,
06.29 17:03:27:834,37585,0.08238,-0.03830,9.79273,0.00000,0.00000,0.00000,0.39662,-0.16774,-0.69567,-0.39780,110.52737,-0.32143,0.56980,0.00033,-0.00445,0.82177,1,0,
06.29 17:03:27:846,37586,0.06611,-0.05589,9.79655,0.00000,0.00000,0.00000,0.39713,-0.16721,-0.69716,-0.39740,110.52748,-0.32129,0.56980,0.00033,-0.00445,0.82177,1,0,
06.29 17:03:27:856,37587,0.06769,-0.04585,9.80258,0.00000,0.00000,0.00000,0.39660,-0.17033,-0.69120,-0.39909,110.52751,-0.32122,0.56980,0.00032,-0.00446,0.82177,1,0,
06.29 17:03:27:864,37588,0.06455,-0.05646,9.79035,0.00000,0.00000,0.00000,0.39463,-0.16779,-0.69369,-0.39883,110.52741,-0.32140,0.56980,0.00032,-0.00446,0.82177,1,0,
06.29 17:03:27:875,37589,0.05484,-0.06745,9.79061,0.00000,0.00000,0.00000,0.39762,-0.16774,-0.69566,-0.39859,110.52789,-0.32114,0.56980,0.00032,-0.00446,0.82177,1,0,
06.29 17:03:27:886,37590,0.07594,-0.05356,9.80427,0.00000,0.00000,0.00000,0.39662,-0.16926,-0.69468,-0.39778,110.52768,-0.32218,0.56980,0.00033,-0.00445,0.82177,1,0,
06.29 17:03:27:895,37591,0.08670,-0.07372,9.79214,0.00000,0.00000,0.00000,0.39515,-0.16870,-0.69767,-0.39926,110.52911,-0.32232,0.56979,0.00033,-0.00447,0.82178,1,0,
06.29 17:03:27:905,37592,0.08160,-0.06644,9.79085,0.00000,0.00000,0.00000,0.39513,-0.16727,-0.69468,-0.40069,110.52930,-0.32155,0.56979,0.00031,-0.00447,0.82178,1,0,
06.29 17:03:27:914,37593,0.07544,-0.06488,9.80025,0.00000,0.00000,0.00000,0.39762,-0.16773,-0.69616,-0.39909,110.52964,-0.32109,0.56979,0.00032,-0.00446,0.82178,1,0,
06.29 17:03:27:925,37594,0.06870,-0.04715,9.79707,0.00000,0.00000,0.00000,0.39613,-0.16672,-0.69666,-0.39917,110.52902,-0.32065,0.56979,0.00031,-0.00446,0.82178,1,0,
06.29 17:03:27:936,37595,0.07464,-0.06426,9.78255,0.00000,0.00000,0.00000,0.39613,-0.16773,-0.69617,-0.39842,110.52796,-0.31933,0.56980,0.00031,-0.00445,0.82177,1,0,
06.29 17:03:27:945,37596,0.07565,-0.04212,9.79860,0.00000,0.00000,0.00000,0.39612,-0.16926,-0.69468,-0.39822,110.52827,-0.31874,0.56980,0.00031,-0.00444,0.82177,1,0,
06.29 17:03:27:956,37597,0.07418,-0.06098,9.80129,0.00000,0.00000,0.00000,0.39563,-0.16576,-0.69517,-0.40027,110.52956,-0.31838,0.56979,0.00029,-0.00445,0.82178,1,0,
06.29 17:03:27:965,37598,0.05507,-0.05836,9.78508,0.00000,0.00000,0.00000,0.39710,-0.16830,-0.69268,-0.40010,110.52990,-0.31825,0.56978,0.00029,-0.00445,0.82178,1,0,
06.29 17:03:27:975,37599,0.08591,-0.06060,9.79610,0.00000,0.00000,0.00000,0.39513,-0.16926,-0.69469,-0.39914,110.53025,-0.31823,0.56978,0.00030,-0.00444,0.82178,1,0,
06.29 17:03:27:985,37600,0.05726,-0.06599,9.80058,0.00000,0.00000,0.00000,0.39713,-0.16922,-0.69666,-0.39937,110.52965,-0.31908,0.56979,0.00030,-0.00445,0.82178,1,0,
06.29 17:03:27:995,37601,0.06507,-0.04860,9.79450,0.00000,0.00000,0.00000,0.39811,-0.16973,-0.69566,-0.39674,110.52946,-0.31992,0.56979,0.00032,-0.00444,0.82178,1,0,
06.29 17:03:28:005,37602,0.07673,-0.04581,9.78367,0.00000,0.00000,0.00000,0.39464,-0.16724,-0.69618,-0.39817,110.53065,-0.31978,0.56978,0.00031,-0.00445,0.82179,1,0,
06.29 17:03:28:015,37603,0.09159,-0.05287,9.80453,0.00000,0.00000,0.00000,0.39562,-0.16829,-0.69319,-0.39893,110.53088,-0.32019,0.56978,0.00031,-0.00445,0.82179,1,0,
06.29 17:03:28:026,37604,0.07285,-0.05710,9.78561,0.00000,0.00000,0.00000,0.39662,-0.16776,-0.69467,-0.39670,110.53133,-0.32004,0.56977,0.00032,-0.00444,0.82179,1,0,
06.29 17:03:28:035,37605,0.06428,-0.06179,9.80027,0.00000,0.00000,0.00000,0.39464,-0.16875,-0.69569,-0.39403,110.52985,-0.31907,0.56978,0.00033,-0.00441,0.82178,1,0,
06.29 17:03:28:046,37606,0.05645,-0.06497,9.80575,0.00000,0.00000,0.00000,0.39614,-0.17071,-0.69718,-0.39473,110.52997,-0.31851,0.56978,0.00032,-0.00441,0.82178,1,0,
06.29 17:03:28:056,37607,0.05556,-0.04558,9.80604,0.00000,0.00000,0.00000,0.39613,-0.16975,-0.69518,-0.39385,110.52991,-0.31842,0.56978,0.00033,-0.00441,0.82178,1,0,
06.29 17:03:28:065,37608,0.06476,-0.06495,9.79691,0.00000,0.00000,0.00000,0.39614,-0.16821,-0.69717,-0.39519,110.52984,-0.31838,0.56979,0.00032,-0.00442,0.82178,1,0,
06.29 17:03:28:075,37609,0.05858,-0.04832,9.80451,0.00000,0.00000,0.00000,0.39662,-0.16824,-0.69567,-0.39490,110.52931,-0.31982,0.56979,0.00033,-0.00442,0.82178,1,0,
06.29 17:03:28:086,37610,0.06418,-0.06596,9.79042,0.00000,0.00000,0.00000,0.39414,-0.16826,-0.69519,-0.39361,110.52956,-0.31961,0.56979,0.00033,-0.00441,0.82178,1,0,
06.29 17:03:28:096,37611,0.09587,-0.06365,9.79381,0.00000,0.00000,0.00000,0.39712,-0.16723,-0.69616,-0.39381,110.53040,-0.31916,0.56978,0.00033,-0.00441,0.82178,1,0,
06.29 17:03:28:105,37612,0.08816,-0.05957,9.80680,0.00000,0.00000,0.00000,0.39860,-0.17026,-0.69417,-0.39407,110.52979,-0.31973,0.56979,0.00033,-0.00442,0.82178,1,0,
06.29 17:03:28:115,37613,0.07267,-0.04536,9.80854,0.00000,0.00000,0.00000,0.39612,-0.16977,-0.69419,-0.39309,110.52979,-0.32005,0.56979,0.00034,-0.00441,0.82178,1,0,
06.29 17:03:28:126,37614,0.10611,-0.05011,9.78987,0.00000,0.00000,0.00000,0.39514,-0.16871,-0.69718,-0.39227,110.53053,-0.31929,0.56978,0.00034,-0.00440,0.82179,1,0,
06.29 17:03:28:136,37615,0.07502,-0.05215,9.78985,0.00000,0.00000,0.00000,0.39613,-0.16673,-0.69617,-0.39206,110.53036,-0.31887,0.56978,0.00034,-0.00440,0.82178,1,0,
06.29 17:03:28:145,37616,0.08600,-0.03921,9.81503,0.00000,0.00000,0.00000,0.39466,-0.16916,-0.69967,-0.39296,110.53024,-0.31875,0.56978,0.00033,-0.00440,0.82178,1,0,
06.29 17:03:28:154,37617,0.05784,-0.06045,9.80392,0.00000,0.00000,0.00000,0.39613,-0.16922,-0.69667,-0.39465,110.53127,-0.31819,0.56977,0.00032,-0.00441,0.82179,1,0,
06.29 17:03:28:165,37618,0.08461,-0.05374,9.80244,0.00000,0.00000,0.00000,0.39861,-0.16825,-0.69516,-0.39469,110.53066,-0.31826,0.56978,0.00032,-0.00441,0.82179,1,0,
06.29 17:03:28:176,37619,0.07055,-0.06424,9.80127,0.00000,0.00000,0.00000,0.39463,-0.16877,-0.69469,-0.39676,110.53022,-0.31924,0.56978,0.00032,-0.00443,0.82178,1,0,
06.29 17:03:28:186,37620,0.08169,-0.06638,9.79331,0.00000,0.00000,0.00000,0.39265,-0.16627,-0.69470,-0.39681,110.53009,-0.31927,0.56978,0.00032,-0.00443,0.82178,1,0,
06.29 17:03:28:195,37621,0.07536,-0.04669,9.79936,0.00000,0.00000,0.00000,0.39563,-0.16626,-0.69517,-0.39707,110.52965,-0.31916,0.56979,0.00031,-0.00443,0.82178,1,0,
06.29 17:03:28:206,37622,0.07698,-0.04038,9.80914,0.00000,0.00000,0.00000,0.39613,-0.16724,-0.69567,-0.39713,110.53022,-0.31838,0.56978,0.00031,-0.00443,0.82178,1,0,
06.29 17:03:28:215,37623,0.08883,-0.06394,9.79204,0.00000,0.00000,0.00000,0.39565,-0.16718,-0.69866,-0.39881,110.53030,-0.31927,0.56978,0.00031,-0.00445,0.82178,1,0,
06.29 17:03:28:225,37624,0.05731,-0.06791,9.80365,0.00000,0.00000,0.00000,0.39563,-0.16775,-0.69518,-0.39866,110.52979,-0.32007,0.56979,0.00031,-0.00445,0.82178,1,0,
06.29 17:03:28:235,37625,0.05837,-0.06538,9.79297,0.00000,0.00000,0.00000,0.39812,-0.16772,-0.69665,-0.39873,110.52927,-0.31971,0.56979,0.00031,-0.00445,0.82178,1,0,
06.29 17:03:28:246,37626,0.05780,-0.07107,9.80346,0.00000,0.00000,0.00000,0.39763,-0.16970,-0.69766,-0.39818,110.52876,-0.31908,0.56979,0.00031,-0.00444,0.82178,1,0,
06.29 17:03:28:256,37627,0.04879,-0.05051,9.79812,0.00000,0.00000,0.00000,0.39564,-0.16672,-0.69667,-0.39733,110.52801,-0.31969,0.56980,0.00032,-0.00444,0.82177,1,0,
06.29 17:03:28:266,37628,0.09493,-0.05961,9.80584,0.00000,0.00000,0.00000,0.39861,-0.16722,-0.69665,-0.39781,110.52774,-0.32056,0.56980,0.00032,-0.00445,0.82177,1,0,
06.29 17:03:28:275,37629,0.09509,-0.06114,9.80384,0.00000,0.00000,0.00000,0.39464,-0.16723,-0.69668,-0.39965,110.52737,-0.31963,0.56980,0.00030,-0.00446,0.82177,1,0,
06.29 17:03:28:286,37630,0.07783,-0.04656,9.78928,0.00000,0.00000,0.00000,0.39612,-0.16928,-0.69369,-0.39849,110.52772,-0.31939,0.56980,0.00031,-0.00445,0.82177,1,0,
06.29 17:03:28:294,37631,0.07702,-0.05797,9.78906,0.00000,0.00000,0.00000,0.39762,-0.16623,-0.69615,-0.39706,110.52747,-0.31843,0.56980,0.00031,-0.00443,0.82177,1,0,
06.29 17:03:28:305,37632,0.07089,-0.04980,9.78913,0.00000,0.00000,0.00000,0.39613,-0.16824,-0.69567,-0.39678,110.52706,-0.31949,0.56981,0.00032,-0.00443,0.82177,1,0,
06.29 17:03:28:315,37633,0.08179,-0.03752,9.81410,0.00000,0.00000,0.00000,0.39861,-0.17022,-0.69616,-0.39623,110.52754,-0.31912,0.56980,0.00032,-0.00443,0.82177,1,0,
06.29 17:03:28:325,37634,0.04765,-0.04667,9.79846,0.00000,0.00000,0.00000,0.39811,-0.16826,-0.69466,-0.39695,110.52793,-0.31905,0.56980,0.00031,-0.00443,0.82177,1,0,
06.29 17:03:28:335,37635,0.05000,-0.06186,9.78921,0.00000,0.00000,0.00000,0.39761,-0.16726,-0.69466,-0.39711,110.52782,-0.31854,0.56980,0.00031,-0.00443,0.82177,1,0,
06.29 17:03:28:346,37636,0.07246,-0.04893,9.79309,0.00000,0.00000,0.00000,0.39661,-0.16879,-0.69318,-0.39642,110.52747,-0.31858,0.56980,0.00031,-0.00443,0.82177,1,0,
06.29 17:03:28:355,37637,0.07848,-0.05306,9.79150,0.00000,0.00000,0.00000,0.39564,-0.16822,-0.69667,-0.39694,110.52812,-0.31850,0.56980,0.00031,-0.00443,0.82177,1,0,
06.29 17:03:28:366,37638,0.07395,-0.05158,9.77731,0.00000,0.00000,0.00000,0.39762,-0.17072,-0.69617,-0.39977,110.52782,-0.31925,0.56980,0.00030,-0.00445,0.82177,1,0,
06.29 17:03:28:374,37639,0.08679,-0.05154,9.79061,0.00000,0.00000,0.00000,0.39713,-0.16921,-0.69716,-0.39822,110.52726,-0.31913,0.56980,0.00031,-0.00444,0.82177,1,0,
06.29 17:03:28:385,37640,0.08215,-0.05397,9.79953,0.00000,0.00000,0.00000,0.39563,-0.17025,-0.69519,-0.39909,110.52757,-0.31897,0.56980,0.00030,-0.00445,0.82177,1,0,
06.29 17:03:28:394,37641,0.07831,-0.06115,9.78644,0.00000,0.00000,0.00000,0.39614,-0.16821,-0.69717,-0.39810,110.52853,-0.31845,0.56979,0.00030,-0.00444,0.82178,1,0,
06.29 17:03:28:406,37642,0.07256,-0.05329,9.80783,0.00000,0.00000,0.00000,0.39562,-0.16827,-0.69418,-0.39694,110.52727,-0.31843,0.56980,0.00031,-0.00443,0.82177,1,0,
06.29 17:03:28:415,37643,0.07429,-0.06125,9.80594,0.00000,0.00000,0.00000,0.39563,-0.16873,-0.69618,-0.39758,110.52666,-0.31895,0.56981,0.00031,-0.00444,0.82177,1,0,
06.29 17:03:28:425,37644,0.09486,-0.04691,9.80704,0.00000,0.00000,0.00000,0.39712,-0.16823,-0.69616,-0.39703,110.52663,-0.31995,0.56981,0.00032,-0.00444,0.82177,1,0,
06.29 17:03:28:436,37645,0.09048,-0.05428,9.79366,0.00000,0.00000,0.00000,0.39662,-0.16874,-0.69567,-0.39787,110.52679,-0.31934,0.56981,0.00031,-0.00444,0.82177,1,0,
06.29 17:03:28:445,37646,0.05052,-0.05943,9.79860,0.00000,0.00000,0.00000,0.39664,-0.16868,-0.69866,-0.39793,110.52617,-0.31910,0.56981,0.00031,-0.00444,0.82176,1,0,
06.29 17:03:28:455,37647,0.08820,-0.04689,9.79717,0.00000,0.00000,0.00000,0.39663,-0.16822,-0.69666,-0.39797,110.52666,-0.32045,0.56981,0.00032,-0.00445,0.82177,1,0,
06.29 17:03:28:465,37648,0.08553,-0.06293,9.79731,0.00000,0.00000,0.00000,0.39713,-0.16921,-0.69716,-0.39916,110.52646,-0.31974,0.56981,0.00031,-0.00445,0.82176,1,0,
06.29 17:03:28:476,37649,0.07053,-0.06052,9.80454,0.00000,0.00000,0.00000,0.39711,-0.16877,-0.69417,-0.39944,110.52724,-0.31893,0.56980,0.00030,-0.00445,0.82177,1,0,
06.29 17:03:28:485,37650,0.06187,-0.05029,9.78844,0.00000,0.00000,0.00000,0.39812,-0.16870,-0.69765,-0.39818,110.52725,-0.31925,0.56980,0.00031,-0.00444,0.82177,1,0,
06.29 17:03:28:496,37651,0.08813,-0.04460,9.79278,0.00000,0.00000,0.00000,0.39564,-0.16669,-0.69816,-0.39918,110.52665,-0.32028,0.56981,0.00031,-0.00446,0.82177,1,0,
06.29 17:03:28:506,37652,0.11199,-0.05036,9.80632,0.00000,0.00000,0.00000,0.39564,-0.16473,-0.69666,-0.39970,110.52600,-0.32005,0.56981,0.00031,-0.00446,0.82176,1,0,
06.29 17:03:28:515,37653,0.06904,-0.03784,9.79011,0.00000,0.00000,0.00000,0.39713,-0.17070,-0.69767,-0.39935,110.52604,-0.31911,0.56981,0.00030,-0.00445,0.82176,1,0,
06.29 17:03:28:525,37654,0.08538,-0.05267,9.79378,0.00000,0.00000,0.00000,0.39762,-0.16921,-0.69716,-0.39778,110.52638,-0.31839,0.56981,0.00031,-0.00444,0.82176,1,0,
06.29 17:03:28:535,37655,0.08397,-0.05701,9.79314,0.00000,0.00000,0.00000,0.39712,-0.16572,-0.69665,-0.39915,110.52781,-0.31854,0.56980,0.00030,-0.00445,0.82177,1,0,
06.29 17:03:28:545,37656,0.06476,-0.07164,9.79946,0.00000,0.00000,0.00000,0.39762,-0.16921,-0.69716,-0.39906,110.52671,-0.31820,0.56981,0.00030,-0.00444,0.82177,1,0,
06.29 17:03:28:555,37657,0.07264,-0.05824,9.78611,0.00000,0.00000,0.00000,0.39563,-0.16925,-0.69518,-0.39911,110.52767,-0.31866,0.56980,0.00030,-0.00445,0.82177,1,0,
06.29 17:03:28:566,37658,0.06859,-0.06152,9.78751,0.00000,0.00000,0.00000,0.39712,-0.16522,-0.69665,-0.39826,110.52748,-0.31829,0.56980,0.00030,-0.00444,0.82177,1,0,
06.29 17:03:28:576,37659,0.08423,-0.06809,9.80399,0.00000,0.00000,0.00000,0.39514,-0.16674,-0.69617,-0.39881,110.52649,-0.31950,0.56981,0.00031,-0.00445,0.82176,1,0,
06.29 17:03:28:586,37660,0.07497,-0.04072,9.79698,0.00000,0.00000,0.00000,0.39662,-0.16675,-0.69517,-0.39976,110.52603,-0.31998,0.56981,0.00031,-0.00446,0.82176,1,0,
06.29 17:03:28:595,37661,0.07860,-0.05147,9.78828,0.00000,0.00000,0.00000,0.39365,-0.16823,-0.69669,-0.40076,110.52682,-0.31976,0.56981,0.00030,-0.00446,0.82177,1,0,
06.29 17:03:28:605,37662,0.05532,-0.05357,9.79579,0.00000,0.00000,0.00000,0.39514,-0.17124,-0.69569,-0.40126,110.52627,-0.32009,0.56981,0.00030,-0.00447,0.82176,1,0,
06.29 17:03:28:614,37663,0.07321,-0.04924,9.80017,0.00000,0.00000,0.00000,0.39812,-0.16923,-0.69616,-0.40009,110.52540,-0.32039,0.56982,0.00031,-0.00446,0.82176,1,0,
06.29 17:03:28:624,37664,0.09534,-0.05649,9.79090,0.00000,0.00000,0.00000,0.39614,-0.16968,-0.69866,-0.39898,110.52563,-0.32181,0.56982,0.00032,-0.00446,0.82176,1,0,
06.29 17:03:28:636,37665,0.06700,-0.05649,9.78358,0.00000,0.00000,0.00000,0.39812,-0.17070,-0.69716,-0.39659,110.52426,-0.32166,0.56983,0.00033,-0.00444,0.82175,1,0,
06.29 17:03:28:645,37666,0.09404,-0.05636,9.80451,0.00000,0.00000,0.00000,0.39614,-0.16618,-0.69865,-0.39663,110.52412,-0.32132,0.56983,0.00033,-0.00444,0.82175,1,0,
06.29 17:03:28:656,37667,0.06345,-0.05675,9.79774,0.00000,0.00000,0.00000,0.39513,-0.16875,-0.69519,-0.39622,110.52451,-0.32108,0.56982,0.00033,-0.00444,0.82176,1,0,
06.29 17:03:28:666,37668,0.07608,-0.06987,9.79788,0.00000,0.00000,0.00000,0.39613,-0.16873,-0.69617,-0.39504,110.52373,-0.32108,0.56983,0.00034,-0.00443,0.82175,1,0,
06.29 17:03:28:675,37669,0.06405,-0.06835,9.78434,0.00000,0.00000,0.00000,0.39613,-0.16924,-0.69568,-0.39675,110.52448,-0.32199,0.56982,0.00034,-0.00445,0.82175,1,0,
06.29 17:03:28:686,37670,0.05707,-0.05476,9.79311,0.00000,0.00000,0.00000,0.39613,-0.16873,-0.69617,-0.39711,110.52444,-0.32255,0.56982,0.00034,-0.00445,0.82175,1,0,
06.29 17:03:28:694,37671,0.06797,-0.05696,9.78968,0.00000,0.00000,0.00000,0.39911,-0.16621,-0.69714,-0.39762,110.52451,-0.32307,0.56982,0.00034,-0.00446,0.82176,1,0,
06.29 17:03:28:704,37672,0.06127,-0.03607,9.81197,0.00000,0.00000,0.00000,0.39612,-0.16927,-0.69418,-0.39835,110.52518,-0.32296,0.56982,0.00034,-0.00446,0.82176,1,0,
06.29 17:03:28:715,37673,0.07525,-0.08038,9.79526,0.00000,0.00000,0.00000,0.39713,-0.16871,-0.69716,-0.39746,110.52557,-0.32251,0.56982,0.00034,-0.00445,0.82176,1,0,
06.29 17:03:28:725,37674,0.06581,-0.05652,9.79240,0.00000,0.00000,0.00000,0.39564,-0.16972,-0.69668,-0.39610,110.52497,-0.32285,0.56982,0.00035,-0.00445,0.82176,1,0,
06.29 17:03:28:738,37675,0.06177,-0.08617,9.79750,0.00000,0.00000,0.00000,0.39862,-0.16719,-0.69814,-0.39618,110.52578,-0.32335,0.56981,0.00035,-0.00445,0.82176,1,0,
06.29 17:03:28:746,37676,0.07584,-0.04884,9.79762,0.00000,0.00000,0.00000,0.39563,-0.16823,-0.69618,-0.39646,110.52500,-0.32221,0.56982,0.00034,-0.00445,0.82176,1,0,
06.29 17:03:28:756,37677,0.07881,-0.06940,9.79915,0.00000,0.00000,0.00000,0.39761,-0.16826,-0.69467,-0.39762,110.52522,-0.32227,0.56982,0.00033,-0.00445,0.82176,1,0,
06.29 17:03:28:765,37678,0.06433,-0.06557,9.79328,0.00000,0.00000,0.00000,0.39564,-0.16772,-0.69667,-0.39706,110.52411,-0.32280,0.56983,0.00034,-0.00445,0.82175,1,0,
06.29 17:03:28:774,37679,0.06041,-0.04397,9.80506,0.00000,0.00000,0.00000,0.39911,-0.16920,-0.69715,-0.39570,110.52339,-0.32390,0.56983,0.00036,-0.00445,0.82175,1,0,
06.29 17:03:28:784,37680,0.08657,-0.05835,9.78866,0.00000,0.00000,0.00000,0.39713,-0.16771,-0.69716,-0.39483,110.52361,-0.32383,0.56983,0.00036,-0.00444,0.82175,1,0,
06.29 17:03:28:796,37681,0.08203,-0.05206,9.78992,0.00000,0.00000,0.00000,0.39662,-0.16675,-0.69517,-0.39661,110.52341,-0.32424,0.56983,0.00035,-0.00446,0.82175,1,0,
06.29 17:03:28:805,37682,0.09379,-0.05695,9.80139,0.00000,0.00000,0.00000,0.39612,-0.17026,-0.69469,-0.39557,110.52325,-0.32496,0.56983,0.00036,-0.00445,0.82175,1,0,
06.29 17:03:28:815,37683,0.07555,-0.06336,9.79209,0.00000,0.00000,0.00000,0.39514,-0.16974,-0.69569,-0.39301,110.52251,-0.32392,0.56984,0.00037,-0.00443,0.82175,1,0,
06.29 17:03:28:826,37684,0.06458,-0.03487,9.79903,0.00000,0.00000,0.00000,0.39464,-0.16826,-0.69519,-0.39266,110.52185,-0.32472,0.56984,0.00038,-0.00443,0.82174,1,0,
06.29 17:03:28:835,37685,0.06546,-0.04662,9.79383,0.00000,0.00000,0.00000,0.39763,-0.16619,-0.69814,-0.39242,110.52217,-0.32544,0.56984,0.00038,-0.00443,0.82174,1,0,
06.29 17:03:28:845,37686,0.06102,-0.06035,9.79645,0.00000,0.00000,0.00000,0.39664,-0.16868,-0.69866,-0.39438,110.52298,-0.32533,0.56983,0.00037,-0.00445,0.82175,1,0,
06.29 17:03:28:855,37687,0.08107,-0.06132,9.78539,0.00000,0.00000,0.00000,0.39613,-0.16925,-0.69518,-0.39513,110.52401,-0.32623,0.56983,0.00037,-0.00446,0.82175,1,0,
06.29 17:03:28:865,37688,0.08284,-0.04996,9.77926,0.00000,0.00000,0.00000,0.39713,-0.16769,-0.69815,-0.39405,110.52405,-0.32684,0.56983,0.00038,-0.00445,0.82175,1,0,
06.29 17:03:28:876,37689,0.07408,-0.06176,9.79383,0.00000,0.00000,0.00000,0.39662,-0.16825,-0.69517,-0.39447,110.52373,-0.32654,0.56983,0.00038,-0.00445,0.82175,1,0,
06.29 17:03:28:885,37690,0.08428,-0.03906,9.80656,0.00000,0.00000,0.00000,0.39564,-0.16819,-0.69817,-0.39550,110.52476,-0.32572,0.56982,0.00037,-0.00446,0.82176,1,0,
06.29 17:03:28:896,37691,0.07956,-0.04797,9.78312,0.00000,0.00000,0.00000,0.39813,-0.16767,-0.69914,-0.39414,110.52390,-0.32593,0.56983,0.00038,-0.00445,0.82175,1,0,
06.29 17:03:28:905,37692,0.07384,-0.05490,9.80880,0.00000,0.00000,0.00000,0.39464,-0.16823,-0.69668,-0.39400,110.52348,-0.32550,0.56983,0.00038,-0.00444,0.82175,1,0,
06.29 17:03:28:916,37693,0.09134,-0.05746,9.80134,0.00000,0.00000,0.00000,0.39713,-0.17072,-0.69667,-0.39248,110.52313,-0.32573,0.56983,0.00038,-0.00443,0.82175,1,0,
06.29 17:03:28:925,37694,0.07435,-0.05412,9.80282,0.00000,0.00000,0.00000,0.39663,-0.16822,-0.69666,-0.39043,110.52293,-0.32434,0.56983,0.00038,-0.00441,0.82175,1,0,
06.29 17:03:28:935,37695,0.06223,-0.06722,9.78737,0.00000,0.00000,0.00000,0.39712,-0.16823,-0.69616,-0.39216,110.52312,-0.32563,0.56983,0.00039,-0.00443,0.82175,1,0,
06.29 17:03:28:944,37696,0.06855,-0.05577,9.79412,0.00000,0.00000,0.00000,0.39714,-0.16967,-0.69915,-0.39247,110.52445,-0.32545,0.56982,0.00038,-0.00443,0.82176,1,0,
06.29 17:03:28:956,37697,0.08217,-0.05141,9.80144,0.00000,0.00000,0.00000,0.39662,-0.16976,-0.69468,-0.39147,110.52468,-0.32538,0.56982,0.00039,-0.00443,0.82176,1,0,
06.29 17:03:28:966,37698,0.08248,-0.09301,9.79934,0.00000,0.00000,0.00000,0.39564,-0.16571,-0.69766,-0.39559,110.52514,-0.32508,0.56982,0.00036,-0.00445,0.82176,1,0,
06.29 17:03:28:975,37699,0.06506,-0.05848,9.80136,0.00000,0.00000,0.00000,0.39762,-0.16921,-0.69716,-0.39827,110.52470,-0.32480,0.56982,0.00035,-0.00447,0.82176,1,0,
06.29 17:03:28:986,37700,0.08645,-0.06693,9.78439,0.00000,0.00000,0.00000,0.39514,-0.16821,-0.69717,-0.39784,110.52457,-0.32584,0.56982,0.00036,-0.00447,0.82176,1,0,
06.29 17:03:28:995,37701,0.08131,-0.03907,9.79862,0.00000,0.00000,0.00000,0.39514,-0.16573,-0.69667,-0.39739,110.52388,-0.32597,0.56983,0.00036,-0.00447,0.82175,1,0,
06.29 17:03:29:005,37702,0.08715,-0.05366,9.79249,0.00000,0.00000,0.00000,0.39563,-0.16724,-0.69567,-0.39726,110.52368,-0.32558,0.56983,0.00036,-0.00447,0.82175,1,0,
06.29 17:03:29:015,37703,0.07060,-0.04580,9.80220,0.00000,0.00000,0.00000,0.39664,-0.16968,-0.69866,-0.39887,110.52471,-0.32614,0.56982,0.00036,-0.00448,0.82176,1,0,
06.29 17:03:29:026,37704,0.05678,-0.03778,9.81038,0.00000,0.00000,0.00000,0.39812,-0.16773,-0.69615,-0.39839,110.52509,-0.32636,0.56982,0.00036,-0.00448,0.82176,1,0,
06.29 17:03:29:036,37705,0.08487,-0.05942,9.81379,0.00000,0.00000,0.00000,0.39613,-0.16972,-0.69667,-0.39766,110.52455,-0.32608,0.56982,0.00036,-0.00447,0.82176,1,0,
06.29 17:03:29:046,37706,0.05606,-0.04810,9.79004,0.00000,0.00000,0.00000,0.39565,-0.16767,-0.69916,-0.39787,110.52554,-0.32550,0.56982,0.00036,-0.00447,0.82176,1,0,
06.29 17:03:29:055,37707,0.06040,-0.05467,9.80592,0.00000,0.00000,0.00000,0.39711,-0.16678,-0.69367,-0.39918,110.52544,-0.32553,0.56982,0.00035,-0.00448,0.82176,1,0,
06.29 17:03:29:066,37708,0.07601,-0.08012,9.80931,0.00000,0.00000,0.00000,0.39465,-0.16872,-0.69718,-0.39943,110.52549,-0.32478,0.56982,0.00034,-0.00448,0.82176,1,0,
06.29 17:03:29:074,37709,0.07211,-0.08356,9.80408,0.00000,0.00000,0.00000,0.39564,-0.16772,-0.69667,-0.40219,110.52574,-0.32463,0.56981,0.00033,-0.00450,0.82176,1,0,
06.29 17:03:29:084,37710,0.06924,-0.04442,9.79514,0.00000,0.00000,0.00000,0.39565,-0.16866,-0.69966,-0.40161,110.52571,-0.32482,0.56981,0.00033,-0.00450,0.82176,1,0,
06.29 17:03:29:095,37711,0.06461,-0.05229,9.79862,0.00000,0.00000,0.00000,0.39664,-0.16818,-0.69866,-0.40031,110.52562,-0.32473,0.56982,0.00034,-0.00449,0.82176,1,0,
06.29 17:03:29:105,37712,0.07916,-0.05343,9.80754,0.00000,0.00000,0.00000,0.39911,-0.17022,-0.69615,-0.40151,110.52541,-0.32512,0.56982,0.00033,-0.00450,0.82176,1,0,
06.29 17:03:29:116,37713,0.08173,-0.05524,9.79388,0.00000,0.00000,0.00000,0.39464,-0.16824,-0.69618,-0.40069,110.52528,-0.32529,0.56982,0.00034,-0.00449,0.82176,1,0,
06.29 17:03:29:125,37714,0.10305,-0.06403,9.78954,0.00000,0.00000,0.00000,0.39713,-0.16822,-0.69666,-0.39825,110.52402,-0.32567,0.56983,0.00036,-0.00448,0.82175,1,0,
06.29 17:03:29:136,37715,0.08016,-0.05972,9.77502,0.00000,0.00000,0.00000,0.39515,-0.16818,-0.69867,-0.39748,110.52508,-0.32436,0.56982,0.00035,-0.00446,0.82176,1,0,
06.29 17:03:29:144,37716,0.06886,-0.06938,9.78911,0.00000,0.00000,0.00000,0.39514,-0.16724,-0.69618,-0.39682,110.52531,-0.32432,0.56982,0.00035,-0.00446,0.82176,1,0,
06.29 17:03:29:155,37717,0.06062,-0.05999,9.79412,0.00000,0.00000,0.00000,0.39713,-0.16819,-0.69815,-0.39754,110.52609,-0.32394,0.56981,0.00035,-0.00446,0.82176,1,0,
06.29 17:03:29:165,37718,0.06354,-0.06282,9.78174,0.00000,0.00000,0.00000,0.39862,-0.16819,-0.69764,-0.39902,110.52605,-0.32385,0.56981,0.00034,-0.00447,0.82176,1,0,
06.29 17:03:29:174,37719,0.08095,-0.05517,9.80356,0.00000,0.00000,0.00000,0.39663,-0.16771,-0.69716,-0.39820,110.52554,-0.32255,0.56982,0.00033,-0.00446,0.82176,1,0,
06.29 17:03:29:186,37720,0.07002,-0.04716,9.78635,0.00000,0.00000,0.00000,0.39365,-0.16974,-0.69620,-0.39650,110.52514,-0.32197,0.56982,0.00034,-0.00444,0.82176,1,0,
06.29 17:03:29:196,37721,0.06861,-0.04759,9.79676,0.00000,0.00000,0.00000,0.39812,-0.16720,-0.69764,-0.39568,110.52420,-0.32125,0.56983,0.00034,-0.00443,0.82175,1,0,
06.29 17:03:29:205,37722,0.07017,-0.06790,9.80387,0.00000,0.00000,0.00000,0.39564,-0.16721,-0.69717,-0.39521,110.52322,-0.32121,0.56983,0.00034,-0.00443,0.82175,1,0,
06.29 17:03:29:216,37723,0.07599,-0.04160,9.79154,0.00000,0.00000,0.00000,0.39514,-0.16774,-0.69618,-0.39418,110.52406,-0.32107,0.56983,0.00034,-0.00442,0.82175,1,0,
06.29 17:03:29:225,37724,0.07474,-0.03724,9.79874,0.00000,0.00000,0.00000,0.39912,-0.16919,-0.69764,-0.39511,110.52401,-0.32123,0.56983,0.00034,-0.00443,0.82175,1,0,
06.29 17:03:29:235,37725,0.07233,-0.06403,9.80618,0.00000,0.00000,0.00000,0.39665,-0.16816,-0.69965,-0.39290,110.52347,-0.32150,0.56983,0.00035,-0.00442,0.82175,1,0,
06.29 17:03:29:245,37726,0.08753,-0.03891,9.77915,0.00000,0.00000,0.00000,0.39714,-0.17018,-0.69866,-0.39107,110.52258,-0.32098,0.56984,0.00036,-0.00440,0.82175,1,0,
06.29 17:03:29:255,37727,0.06552,-0.06640,9.79698,0.00000,0.00000,0.00000,0.39712,-0.16973,-0.69617,-0.39189,110.52222,-0.32058,0.56984,0.00035,-0.00440,0.82174,1,0,
06.29 17:03:29:265,37728,0.08785,-0.05062,9.80446,0.00000,0.00000,0.00000,0.39662,-0.16824,-0.69567,-0.39021,110.52185,-0.32173,0.56984,0.00037,-0.00440,0.82174,1,0,
06.29 17:03:29:275,37729,0.06194,-0.06351,9.79156,0.00000,0.00000,0.00000,0.39562,-0.16628,-0.69418,-0.39116,110.52261,-0.32112,0.56984,0.00036,-0.00440,0.82175,1,0,
06.29 17:03:29:286,37730,0.06593,-0.05908,9.79588,0.00000,0.00000,0.00000,0.39713,-0.16770,-0.69765,-0.39347,110.52280,-0.32092,0.56984,0.00034,-0.00442,0.82175,1,0,
06.29 17:03:29:296,37731,0.06153,-0.05802,9.80000,0.00000,0.00000,0.00000,0.39366,-0.16919,-0.69868,-0.39361,110.52241,-0.32055,0.56984,0.00034,-0.00442,0.82174,1,0,
06.29 17:03:29:304,37732,0.06889,-0.03513,9.80310,0.00000,0.00000,0.00000,0.39664,-0.16970,-0.69767,-0.39359,110.52274,-0.32145,0.56984,0.00035,-0.00442,0.82175,1,0,
06.29 17:03:29:314,37733,0.07143,-0.06127,9.81143,0.00000,0.00000,0.00000,0.39513,-0.17025,-0.69519,-0.39325,110.52167,-0.32206,0.56984,0.00035,-0.00442,0.82174,1,0,
06.29 17:03:29:324,37734,0.08716,-0.07151,9.80382,0.00000,0.00000,0.00000,0.39861,-0.16924,-0.69516,-0.39373,110.52258,-0.32206,0.56984,0.00035,-0.00443,0.82175,1,0,
06.29 17:03:29:335,37735,0.08408,-0.06939,9.78858,0.00000,0.00000,0.00000,0.39515,-0.16870,-0.69767,-0.39557,110.52308,-0.32230,0.56983,0.00034,-0.00444,0.82175,1,0,
06.29 17:03:29:345,37736,0.07291,-0.05943,9.78906,0.00000,0.00000,0.00000,0.39563,-0.16724,-0.69567,-0.39450,110.52325,-0.32338,0.56983,0.00036,-0.00444,0.82175,1,0,
06.29 17:03:29:356,37737,0.07344,-0.03698,9.79934,0.00000,0.00000,0.00000,0.39614,-0.16671,-0.69716,-0.39385,110.52364,-0.32465,0.56983,0.00037,-0.00444,0.82175,1,0,
06.29 17:03:29:365,37738,0.07454,-0.05237,9.79462,0.00000,0.00000,0.00000,0.39614,-0.16868,-0.69866,-0.39431,110.52450,-0.32495,0.56982,0.00037,-0.00444,0.82176,1,0,
06.29 17:03:29:376,37739,0.07728,-0.06424,9.79326,0.00000,0.00000,0.00000,0.39464,-0.17123,-0.69619,-0.39259,110.52445,-0.32526,0.56982,0.00038,-0.00443,0.82175,1,0,
06.29 17:03:29:385,37740,0.07845,-0.06922,9.79183,0.00000,0.00000,0.00000,0.39564,-0.16671,-0.69717,-0.39338,110.52428,-0.32524,0.56982,0.00038,-0.00444,0.82175,1,0,
06.29 17:03:29:394,37741,0.07288,-0.05399,9.78394,0.00000,0.00000,0.00000,0.39514,-0.16773,-0.69667,-0.39550,110.52500,-0.32592,0.56982,0.00037,-0.00446,0.82176,1,0,
06.29 17:03:29:405,37742,0.07461,-0.05844,9.80423,0.00000,0.00000,0.00000,0.39614,-0.16820,-0.69766,-0.39301,110.52368,-0.32686,0.56983,0.00039,-0.00444,0.82175,1,0,
06.29 17:03:29:414,37743,0.09184,-0.03641,9.79462,0.00000,0.00000,0.00000,0.39564,-0.16770,-0.69767,-0.39329,110.52443,-0.32699,0.56982,0.00039,-0.00445,0.82175,1,0,
06.29 17:03:29:426,37744,0.06275,-0.04967,9.79946,0.00000,0.00000,0.00000,0.39514,-0.17072,-0.69669,-0.39412,110.52466,-0.32650,0.56982,0.00038,-0.00445,0.82176,1,0,
06.29 17:03:29:436,37745,0.06255,-0.06595,9.79047,0.00000,0.00000,0.00000,0.39514,-0.16674,-0.69617,-0.39208,110.52540,-0.32632,0.56982,0.00039,-0.00443,0.82176,1,0,
06.29 17:03:29:446,37746,0.06526,-0.05582,9.80158,0.00000,0.00000,0.00000,0.39514,-0.16674,-0.69617,-0.39096,110.52497,-0.32689,0.56982,0.00040,-0.00443,0.82176,1,0,
06.29 17:03:29:455,37747,0.04441,-0.06337,9.80706,0.00000,0.00000,0.00000,0.39614,-0.16771,-0.69716,-0.39152,110.52583,-0.32787,0.56981,0.00040,-0.00444,0.82176,1,0,
06.29 17:03:29:465,37748,0.06690,-0.08412,9.78382,0.00000,0.00000,0.00000,0.39415,-0.17071,-0.69719,-0.39202,110.52589,-0.32848,0.56981,0.00041,-0.00444,0.82176,1,0,
06.29 17:03:29:475,37749,0.07495,-0.04970,9.80599,0.00000,0.00000,0.00000,0.39663,-0.17071,-0.69717,-0.39115,110.52586,-0.32825,0.56981,0.00041,-0.00444,0.82176,1,0,
06.29 17:03:29:485,37750,0.08644,-0.03924,9.78575,0.00000,0.00000,0.00000,0.39465,-0.16621,-0.69767,-0.39264,110.52627,-0.32901,0.56981,0.00041,-0.00445,0.82176,1,0,
06.29 17:03:29:494,37751,0.08394,-0.06271,9.79147,0.00000,0.00000,0.00000,0.39563,-0.16874,-0.69568,-0.39044,110.52529,-0.32976,0.56982,0.00042,-0.00444,0.82176,1,0,
06.29 17:03:29:506,37752,0.06987,-0.04524,9.79972,0.00000,0.00000,0.00000,0.39515,-0.17020,-0.69768,-0.38969,110.52477,-0.32932,0.56982,0.00042,-0.00443,0.82176,1,0,
06.29 17:03:29:516,37753,0.06810,-0.04096,9.79736,0.00000,0.00000,0.00000,0.39613,-0.16872,-0.69667,-0.38885,110.52502,-0.32918,0.56982,0.00043,-0.00443,0.82176,1,0,
06.29 17:03:29:526,37754,0.07216,-0.05738,9.79197,0.00000,0.00000,0.00000,0.39463,-0.16829,-0.69369,-0.38730,110.52477,-0.32801,0.56982,0.00043,-0.00441,0.82176,1,0,
06.29 17:03:29:535,37755,0.07814,-0.06376,9.80189,0.00000,0.00000,0.00000,0.39563,-0.16775,-0.69518,-0.38874,110.52528,-0.32870,0.56982,0.00042,-0.00442,0.82176,1,0,
06.29 17:03:29:544,37756,0.07487,-0.04350,9.79927,0.00000,0.00000,0.00000,0.39663,-0.16921,-0.69717,-0.39025,110.52596,-0.32867,0.56981,0.00042,-0.00443,0.82176,1,0,
06.29 17:03:29:555,37757,0.09781,-0.06685,9.79376,0.00000,0.00000,0.00000,0.39563,-0.16773,-0.69617,-0.38994,110.52591,-0.32838,0.56981,0.00042,-0.00443,0.82176,1,0,
06.29 17:03:29:565,37758,0.06742,-0.04204,9.80020,0.00000,0.00000,0.00000,0.39664,-0.16970,-0.69767,-0.39089,110.52642,-0.32873,0.56981,0.00041,-0.00444,0.82176,1,0,
06.29 17:03:29:575,37759,0.05983,-0.05858,9.80609,0.00000,0.00000,0.00000,0.39613,-0.16725,-0.69517,-0.39044,110.52589,-0.32841,0.56981,0.00041,-0.00443,0.82176,1,0,
06.29 17:03:29:586,37760,0.07284,-0.07620,9.80001,0.00000,0.00000,0.00000,0.39563,-0.16875,-0.69518,-0.38926,110.52469,-0.32834,0.56982,0.00042,-0.00442,0.82176,1,0,
06.29 17:03:29:596,37761,0.08499,-0.05204,9.79218,0.00000,0.00000,0.00000,0.39563,-0.16824,-0.69568,-0.39043,110.52493,-0.32873,0.56982,0.00042,-0.00443,0.82176,1,0,
06.29 17:03:29:606,37762,0.06293,-0.06106,9.80268,0.00000,0.00000,0.00000,0.39712,-0.16823,-0.69616,-0.38956,110.52490,-0.32912,0.56982,0.00042,-0.00443,0.82176,1,0,
06.29 17:03:29:615,37763,0.07309,-0.05168,9.80532,0.00000,0.00000,0.00000,0.39463,-0.16777,-0.69469,-0.38816,110.52475,-0.32944,0.56982,0.00043,-0.00442,0.82176,1,0,
06.29 17:03:29:624,37764,0.07058,-0.04696,9.80790,0.00000,0.00000,0.00000,0.39810,-0.16778,-0.69367,-0.38777,110.52505,-0.32988,0.56982,0.00044,-0.00442,0.82176,1,0,
06.29 17:03:29:635,37765,0.07635,-0.06293,9.79173,0.00000,0.00000,0.00000,0.39564,-0.16871,-0.69717,-0.38722,110.52491,-0.33045,0.56982,0.00044,-0.00442,0.82176,1,0,
06.29 17:03:29:645,37766,0.05954,-0.06806,9.78832,0.00000,0.00000,0.00000,0.39612,-0.16827,-0.69418,-0.38798,110.52479,-0.33067,0.56982,0.00044,-0.00443,0.82176,1,0,
06.29 17:03:29:655,37767,0.07471,-0.05705,9.79071,0.00000,0.00000,0.00000,0.39663,-0.16773,-0.69617,-0.38933,110.52394,-0.33075,0.56983,0.00044,-0.00444,0.82175,1,0,
06.29 17:03:29:666,37768,0.06806,-0.03572,9.79173,0.00000,0.00000,0.00000,0.39513,-0.16728,-0.69419,-0.38871,110.52436,-0.32998,0.56982,0.00043,-0.00443,0.82175,1,0,
06.29 17:03:29:676,37769,0.06614,-0.05656,9.79986,0.00000,0.00000,0.00000,0.39761,-0.16875,-0.69517,-0.38779,110.52412,-0.33018,0.56983,0.00044,-0.00442,0.82175,1,0,
06.29 17:03:29:685,37770,0.06411,-0.06773,9.80690,0.00000,0.00000,0.00000,0.39812,-0.16872,-0.69665,-0.38859,110.52416,-0.33084,0.56983,0.00044,-0.00443,0.82175,1,0,
06.29 17:03:29:695,37771,0.07400,-0.06085,9.79450,0.00000,0.00000,0.00000,0.39662,-0.16775,-0.69517,-0.38747,110.52320,-0.33045,0.56983,0.00044,-0.00442,0.82175,1,0,
06.29 17:03:29:704,37772,0.05749,-0.06161,9.79323,0.00000,0.00000,0.00000,0.39564,-0.16820,-0.69767,-0.38716,110.52332,-0.33023,0.56983,0.00044,-0.00442,0.82175,1,0,
06.29 17:03:29:715,37773,0.07337,-0.05006,9.81185,0.00000,0.00000,0.00000,0.39614,-0.16820,-0.69766,-0.38770,110.52313,-0.33065,0.56983,0.00044,-0.00442,0.82175,1,0,
06.29 17:03:29:725,37774,0.06732,-0.05688,9.78837,0.00000,0.00000,0.00000,0.39812,-0.16923,-0.69616,-0.38783,110.52283,-0.33063,0.56984,0.00044,-0.00443,0.82175,1,0,
06.29 17:03:29:734,37775,0.07704,-0.04332,9.80546,0.00000,0.00000,0.00000,0.39117,-0.16725,-0.69621,-0.38760,110.52196,-0.33100,0.56984,0.00045,-0.00443,0.82174,1,0,
06.29 17:03:29:745,37776,0.07589,-0.03743,9.78487,0.00000,0.00000,0.00000,0.39712,-0.16873,-0.69617,-0.38865,110.52237,-0.33181,0.56984,0.00045,-0.00444,0.82174,1,0,
06.29 17:03:29:756,37777,0.07222,-0.06396,9.81584,0.00000,0.00000,0.00000,0.39713,-0.16771,-0.69716,-0.39615,110.53605,-0.33610,0.56974,0.00044,-0.00451,0.82181,1,0,
06.29 17:03:29:766,37778,0.07521,-0.06712,9.78785,0.00000,0.00000,0.00000,0.39514,-0.16723,-0.69667,-0.39515,110.53569,-0.33630,0.56974,0.00045,-0.00451,0.82181,1,0,
06.29 17:03:29:775,37779,0.07735,-0.05217,9.78796,0.00000,0.00000,0.00000,0.39614,-0.16869,-0.69816,-0.39563,110.53597,-0.33686,0.56974,0.00045,-0.00451,0.82181,1,0,
06.29 17:03:29:785,37780,0.08399,-0.03624,9.77905,0.00000,0.00000,0.00000,0.39464,-0.16873,-0.69668,-0.39525,110.53672,-0.33641,0.56974,0.00045,-0.00451,0.82182,1,0,
06.29 17:03:29:795,37781,0.06330,-0.05793,9.79023,0.00000,0.00000,0.00000,0.39811,-0.17026,-0.69417,-0.39536,110.53751,-0.33711,0.56973,0.00045,-0.00451,0.82182,1,0,
06.29 17:03:29:805,37782,0.06123,-0.06524,9.79660,0.00000,0.00000,0.00000,0.39613,-0.16872,-0.69667,-0.39621,110.53722,-0.33700,0.56973,0.00045,-0.00452,0.82182,1,0,
06.29 17:03:29:815,37783,0.05973,-0.06300,9.80487,0.00000,0.00000,0.00000,0.39414,-0.16876,-0.69519,-0.39689,110.53722,-0.33806,0.56973,0.00045,-0.00453,0.82182,1,0,
06.29 17:03:29:826,37784,0.07087,-0.05569,9.79557,0.00000,0.00000,0.00000,0.39563,-0.16673,-0.69617,-0.39602,110.53709,-0.33907,0.56973,0.00046,-0.00453,0.82182,1,0,
06.29 17:03:29:836,37785,0.05409,-0.04439,9.78069,0.00000,0.00000,0.00000,0.39364,-0.16828,-0.69420,-0.39515,110.53761,-0.33966,0.56973,0.00047,-0.00452,0.82182,1,0,
06.29 17:03:29:845,37786,0.06537,-0.05597,9.78937,0.00000,0.00000,0.00000,0.39612,-0.17177,-0.69419,-0.39407,110.53748,-0.34043,0.56973,0.00048,-0.00452,0.82182,1,0,
06.29 17:03:29:855,37787,0.09065,-0.04197,9.79488,0.00000,0.00000,0.00000,0.39662,-0.16876,-0.69468,-0.39733,110.53889,-0.34103,0.56972,0.00047,-0.00455,0.82183,1,0,
06.29 17:03:29:865,37788,0.07941,-0.03870,9.80215,0.00000,0.00000,0.00000,0.39217,-0.16872,-0.69720,-0.39829,110.53827,-0.33954,0.56972,0.00045,-0.00454,0.82182,1,0,
06.29 17:03:29:875,37789,0.07498,-0.06074,9.79099,0.00000,0.00000,0.00000,0.39613,-0.17172,-0.69668,-0.39925,110.53845,-0.34043,0.56972,0.00046,-0.00456,0.82182,1,0,
06.29 17:03:29:884,37790,0.09020,-0.05233,9.79631,0.00000,0.00000,0.00000,0.39564,-0.16870,-0.69767,-0.39947,110.53946,-0.34052,0.56972,0.00046,-0.00456,0.82183,1,0,
06.29 17:03:29:894,37791,0.05726,-0.04519,9.75950,0.00000,0.00000,0.00000,0.39562,-0.17077,-0.69419,-0.39794,110.53904,-0.34139,0.56972,0.00047,-0.00455,0.82183,1,0,
06.29 17:03:29:906,37792,0.05134,-0.03653,9.79171,0.00000,0.00000,0.00000,0.39464,-0.16823,-0.69668,-0.39797,110.53834,-0.34141,0.56972,0.00047,-0.00455,0.82182,1,0,
06.29 17:03:29:916,37793,0.07204,-0.06065,9.82592,0.00000,0.00000,0.00000,0.39564,-0.16872,-0.69667,-0.39856,110.53838,-0.34140,0.56972,0.00047,-0.00456,0.82182,1,0,
06.29 17:03:29:925,37794,0.10058,-0.05572,9.77964,0.00000,0.00000,0.00000,0.39465,-0.16672,-0.69717,-0.39810,110.53773,-0.34190,0.56973,0.00047,-0.00455,0.82182,1,0,
06.29 17:03:29:935,37795,0.07970,-0.04771,9.77597,0.00000,0.00000,0.00000,0.39414,-0.16725,-0.69569,-0.39807,110.53832,-0.34258,0.56972,0.00048,-0.00456,0.82182,1,0,
06.29 17:03:29:944,37796,0.08177,-0.02957,9.82997,0.00000,0.00000,0.00000,0.39611,-0.16779,-0.69318,-0.39600,110.53870,-0.34299,0.56972,0.00049,-0.00455,0.82182,1,0,
06.29 17:03:29:955,37797,0.06636,-0.06523,9.78029,0.00000,0.00000,0.00000,0.39614,-0.16820,-0.69766,-0.39575,110.53890,-0.34377,0.56972,0.00050,-0.00455,0.82183,1,0,
06.29 17:03:29:965,37798,0.07255,-0.06900,9.78317,0.00000,0.00000,0.00000,0.39711,-0.16726,-0.69467,-0.39746,110.53833,-0.34273,0.56972,0.00048,-0.00455,0.82182,1,0,
06.29 17:03:29:976,37799,0.07412,-0.04995,9.81779,0.00000,0.00000,0.00000,0.39664,-0.16919,-0.69816,-0.39625,110.53802,-0.34319,0.56973,0.00049,-0.00455,0.82182,1,0,
06.29 17:03:29:986,37800,0.07919,-0.05666,9.80969,0.00000,0.00000,0.00000,0.39265,-0.16725,-0.69570,-0.39457,110.53742,-0.34365,0.56973,0.00050,-0.00454,0.82182,1,0,
06.29 17:03:29:996,37801,0.07615,-0.07048,9.78091,0.00000,0.00000,0.00000,0.39464,-0.16824,-0.69618,-0.39482,110.53664,-0.34356,0.56974,0.00050,-0.00454,0.82181,1,0,
06.29 17:03:30:005,37802,0.07130,-0.05686,9.80938,0.00000,0.00000,0.00000,0.39563,-0.16723,-0.69617,-0.39540,110.53711,-0.34295,0.56973,0.00049,-0.00454,0.82182,1,0,
06.29 17:03:30:015,37803,0.06194,-0.06555,9.81050,0.00000,0.00000,0.00000,0.39564,-0.16822,-0.69667,-0.39634,110.53778,-0.34321,0.56973,0.00049,-0.00455,0.82182,1,0,
06.29 17:03:30:024,37804,0.09380,-0.06583,9.78406,0.00000,0.00000,0.00000,0.39514,-0.16724,-0.69618,-0.39527,110.53722,-0.34321,0.56973,0.00050,-0.00454,0.82182,1,0,
06.29 17:03:30:035,37805,0.07764,-0.08001,9.78332,0.00000,0.00000,0.00000,0.39463,-0.16729,-0.69369,-0.39369,110.53705,-0.34185,0.56973,0.00049,-0.00452,0.82182,1,0,
06.29 17:03:30:045,37806,0.06909,-0.06365,9.82077,0.00000,0.00000,0.00000,0.39861,-0.16922,-0.69616,-0.39401,110.53648,-0.34142,0.56974,0.00049,-0.00452,0.82181,1,0,
06.29 17:03:30:056,37807,0.07321,-0.05770,9.78396,0.00000,0.00000,0.00000,0.39712,-0.16774,-0.69566,-0.39317,110.53555,-0.34207,0.56974,0.00050,-0.00452,0.82181,1,0,
06.29 17:03:30:066,37808,0.07275,-0.06608,9.77402,0.00000,0.00000,0.00000,0.39364,-0.16779,-0.69370,-0.39220,110.53382,-0.34204,0.56976,0.00050,-0.00451,0.82180,1,0,
06.29 17:03:30:076,37809,0.06284,-0.05430,9.81672,0.00000,0.00000,0.00000,0.39513,-0.16528,-0.69418,-0.39277,110.53415,-0.34147,0.56975,0.00050,-0.00451,0.82180,1,0,
06.29 17:03:30:084,37810,0.07592,-0.04680,9.80015,0.00000,0.00000,0.00000,0.39563,-0.16826,-0.69468,-0.39460,110.53493,-0.34205,0.56975,0.00049,-0.00453,0.82181,1,0,
06.29 17:03:30:095,37811,0.09587,-0.05933,9.78065,0.00000,0.00000,0.00000,0.39662,-0.16924,-0.69567,-0.39377,110.53484,-0.34278,0.56975,0.00050,-0.00453,0.82181,1,0,
06.29 17:03:30:106,37812,0.06694,-0.05061,9.81805,0.00000,0.00000,0.00000,0.39464,-0.16825,-0.69569,-0.39450,110.53502,-0.34416,0.56975,0.00051,-0.00454,0.82181,1,0,
06.29 17:03:30:115,37813,0.09458,-0.05548,9.80601,0.00000,0.00000,0.00000,0.39513,-0.17077,-0.69420,-0.39602,110.53568,-0.34389,0.56974,0.00050,-0.00455,0.82181,1,0,
06.29 17:03:30:124,37814,0.08237,-0.05379,9.77526,0.00000,0.00000,0.00000,0.39514,-0.16825,-0.69568,-0.39424,110.53689,-0.34430,0.56973,0.00051,-0.00454,0.82182,1,0,
06.29 17:03:30:136,37815,0.08342,-0.06567,9.79402,0.00000,0.00000,0.00000,0.39564,-0.17021,-0.69718,-0.39526,110.53832,-0.34456,0.56972,0.00051,-0.00455,0.82182,1,0,
06.29 17:03:30:146,37816,0.04700,-0.08060,9.81405,0.00000,0.00000,0.00000,0.39661,-0.17029,-0.69319,-0.39593,110.53867,-0.34484,0.56972,0.00050,-0.00455,0.82182,1,0,
06.29 17:03:30:155,37817,0.06651,-0.07045,9.78596,0.00000,0.00000,0.00000,0.39463,-0.16879,-0.69370,-0.39532,110.53899,-0.34378,0.56972,0.00050,-0.00454,0.82183,1,0,
06.29 17:03:30:165,37818,0.06618,-0.08408,9.75974,0.00000,0.00000,0.00000,0.39563,-0.16826,-0.69468,-0.39434,110.53830,-0.34409,0.56972,0.00051,-0.00454,0.82182,1,0,
06.29 17:03:30:175,37819,0.05850,-0.06558,9.81746,0.00000,0.00000,0.00000,0.39464,-0.16876,-0.69519,-0.39462,110.53793,-0.34676,0.56973,0.00052,-0.00455,0.82182,1,0,
06.29 17:03:30:185,37820,0.11328,-0.04823,9.79550,0.00000,0.00000,0.00000,0.39414,-0.17075,-0.69570,-0.39358,110.53708,-0.34703,0.56973,0.00053,-0.00455,0.82182,1,0,
06.29 17:03:30:195,37821,0.07539,-0.04694,9.79922,0.00000,0.00000,0.00000,0.39564,-0.17072,-0.69668,-0.39351,110.53786,-0.34556,0.56973,0.00052,-0.00454,0.82182,1,0,
06.29 17:03:30:205,37822,0.05425,-0.02394,9.79707,0.00000,0.00000,0.00000,0.39514,-0.16773,-0.69667,-0.39209,110.53800,-0.34423,0.56973,0.00052,-0.00452,0.82182,1,0,
06.29 17:03:30:216,37823,0.09660,-0.07296,9.78723,0.00000,0.00000,0.00000,0.39564,-0.16870,-0.69767,-0.39011,110.53589,-0.34690,0.56974,0.00055,-0.00452,0.82181,1,0,
06.29 17:03:30:226,37824,0.09064,-0.05408,9.80380,0.00000,0.00000,0.00000,0.39464,-0.16924,-0.69619,-0.39041,110.53481,-0.34729,0.56975,0.00055,-0.00453,0.82181,1,0,
06.29 17:03:30:236,37825,0.07044,-0.05728,9.77833,0.00000,0.00000,0.00000,0.39314,-0.16828,-0.69420,-0.39102,110.53530,-0.34503,0.56975,0.00053,-0.00452,0.82181,1,0,
06.29 17:03:30:245,37826,0.05952,-0.02524,9.80949,0.00000,0.00000,0.00000,0.39662,-0.16876,-0.69468,-0.38937,110.53493,-0.34458,0.56975,0.00054,-0.00451,0.82181,1,0,
06.29 17:03:30:255,37827,0.10523,-0.06804,9.79383,0.00000,0.00000,0.00000,0.39613,-0.16822,-0.69667,-0.39056,110.53360,-0.34617,0.56976,0.00054,-0.00452,0.82180,1,0,
06.29 17:03:30:264,37828,0.09903,-0.04304,9.78999,0.00000,0.00000,0.00000,0.39562,-0.16679,-0.69368,-0.38890,110.53275,-0.34623,0.56976,0.00055,-0.00451,0.82180,1,0,
06.29 17:03:30:274,37829,0.05746,-0.08373,9.81624,0.00000,0.00000,0.00000,0.39861,-0.16921,-0.69665,-0.39106,110.53358,-0.34439,0.56976,0.00053,-0.00452,0.82180,1,0,
06.29 17:03:30:285,37830,0.07287,-0.04539,9.78451,0.00000,0.00000,0.00000,0.39365,-0.17125,-0.69570,-0.39127,110.53442,-0.34433,0.56975,0.00052,-0.00452,0.82180,1,0,
06.29 17:03:30:296,37831,0.09334,-0.05768,9.79459,0.00000,0.00000,0.00000,0.39763,-0.17018,-0.69865,-0.38807,110.53374,-0.34657,0.56976,0.00056,-0.00451,0.82180,1,0,
06.29 17:03:30:306,37832,0.08713,-0.02928,9.79347,0.00000,0.00000,0.00000,0.39463,-0.16728,-0.69419,-0.38500,110.53335,-0.34582,0.56976,0.00057,-0.00448,0.82180,1,0,
06.29 17:03:30:315,37833,0.04952,-0.03697,9.79662,0.00000,0.00000,0.00000,0.39711,-0.16778,-0.69367,-0.38563,110.53262,-0.34414,0.56977,0.00055,-0.00448,0.82180,1,0,
06.29 17:03:30:325,37834,0.11036,-0.04896,9.79006,0.00000,0.00000,0.00000,0.39812,-0.16720,-0.69764,-0.38573,110.53234,-0.34498,0.56977,0.00056,-0.00448,0.82179,1,0,
06.29 17:03:30:335,37835,0.10005,-0.09734,9.79676,0.00000,0.00000,0.00000,0.39415,-0.16821,-0.69768,-0.38589,110.53185,-0.34691,0.56977,0.00057,-0.00449,0.82179,1,0,
06.29 17:03:30:345,37836,0.05287,-0.06350,9.84056,0.00000,0.00000,0.00000,0.39514,-0.16974,-0.69569,-0.38665,110.53355,-0.34323,0.56976,0.00054,-0.00448,0.82180,1,0,
06.29 17:03:30:355,37837,0.00725,-0.08203,9.76169,0.00000,0.00000,0.00000,0.39664,-0.17120,-0.69767,-0.38689,110.53458,-0.34082,0.56975,0.00052,-0.00447,0.82180,1,0,
06.29 17:03:30:365,37838,0.08218,-0.01846,9.79395,0.00000,0.00000,0.00000,0.39611,-0.17080,-0.69270,-0.38640,110.53329,-0.34508,0.56976,0.00055,-0.00449,0.82180,1,0,
06.29 17:03:30:376,37839,0.14898,-0.03849,9.83643,0.00000,0.00000,0.00000,0.39563,-0.16826,-0.69468,-0.38489,110.53027,-0.34921,0.56978,0.00059,-0.00450,0.82178,1,0,
06.29 17:03:30:386,37840,0.07951,-0.06853,9.80199,0.00000,0.00000,0.00000,0.39464,-0.16826,-0.69519,-0.38470,110.53157,-0.34612,0.56977,0.00057,-0.00448,0.82179,1,0,
06.29 17:03:30:395,37841,0.02325,-0.09684,9.78298,0.00000,0.00000,0.00000,0.39513,-0.16776,-0.69518,-0.38750,110.53404,-0.34219,0.56976,0.00053,-0.00448,0.82180,1,0,
06.29 17:03:30:405,37842,-0.00402,-0.08952,9.77607,0.00000,0.00000,0.00000,0.39762,-0.16722,-0.69665,-0.38981,110.53430,-0.34286,0.56975,0.00052,-0.00450,0.82180,1,0,
06.29 17:03:30:415,37843,0.09602,-0.05048,9.80303,0.00000,0.00000,0.00000,0.39513,-0.16827,-0.69469,-0.38749,110.53134,-0.34692,0.56977,0.00056,-0.00450,0.82179,1,0,
06.29 17:03:30:424,37844,0.16344,-0.04347,9.78587,0.00000,0.00000,0.00000,0.39613,-0.16772,-0.69667,-0.38708,110.53060,-0.35135,0.56978,0.00060,-0.00452,0.82178,1,0,
06.29 17:03:30:435,37845,0.14214,-0.00501,9.80580,0.00000,0.00000,0.00000,0.39465,-0.16719,-0.69867,-0.38843,110.53246,-0.34950,0.56977,0.00058,-0.00452,0.82179,1,0,
06.29 17:03:30:444,37846,0.06275,-0.02718,9.79691,0.00000,0.00000,0.00000,0.39662,-0.16824,-0.69567,-0.38838,110.53445,-0.34488,0.56975,0.00054,-0.00450,0.82180,1,0,
06.29 17:03:30:456,37847,0.04318,-0.05306,9.79798,0.00000,0.00000,0.00000,0.39365,-0.16974,-0.69620,-0.38862,110.53490,-0.34326,0.56975,0.00053,-0.00449,0.82181,1,0,
06.29 17:03:30:466,37848,0.06080,-0.09383,9.77809,0.00000,0.00000,0.00000,0.39513,-0.16978,-0.69370,-0.38930,110.53567,-0.34527,0.56974,0.00054,-0.00451,0.82181,1,0,
06.29 17:03:30:475,37849,0.08430,-0.08427,9.81043,0.00000,0.00000,0.00000,0.39563,-0.16525,-0.69567,-0.38939,110.53561,-0.34601,0.56974,0.00055,-0.00451,0.82181,1,0,
06.29 17:03:30:485,37850,0.05915,-0.08055,9.79512,0.00000,0.00000,0.00000,0.39414,-0.16626,-0.69518,-0.39111,110.53597,-0.34571,0.56974,0.00053,-0.00452,0.82181,1,0,
06.29 17:03:30:495,37851,0.03458,-0.05630,9.79710,0.00000,0.00000,0.00000,0.39762,-0.16773,-0.69616,-0.39246,110.53663,-0.34617,0.56974,0.00053,-0.00454,0.82181,1,0,
06.29 17:03:30:505,37852,0.08763,-0.03036,9.80623,0.00000,0.00000,0.00000,0.39465,-0.16771,-0.69767,-0.39118,110.53531,-0.34716,0.56975,0.00054,-0.00453,0.82181,1,0,
06.29 17:03:30:515,37853,0.10348,-0.06717,9.80556,0.00000,0.00000,0.00000,0.39713,-0.16972,-0.69667,-0.39120,110.53460,-0.34963,0.56975,0.00056,-0.00454,0.82180,1,0,
06.29 17:03:30:525,37854,0.07620,-0.06311,9.79116,0.00000,0.00000,0.00000,0.39563,-0.16673,-0.69617,-0.39004,110.53389,-0.34875,0.56976,0.00056,-0.00453,0.82180,1,0,
06.29 17:03:30:537,37855,0.09222,-0.08461,9.77471,0.00000,0.00000,0.00000,0.39563,-0.16676,-0.69517,-0.38966,110.53329,-0.34720,0.56976,0.00055,-0.00452,0.82180,1,0,
06.29 17:03:30:545,37856,0.10390,-0.05865,9.79946,0.00000,0.00000,0.00000,0.39713,-0.16672,-0.69666,-0.38997,110.53216,-0.34841,0.56977,0.00056,-0.00453,0.82179,1,0,
06.29 17:03:30:555,37857,0.12151,-0.04197,9.80880,0.00000,0.00000,0.00000,0.39564,-0.16672,-0.69667,-0.38852,110.53130,-0.34954,0.56977,0.00057,-0.00452,0.82179,1,0,
06.29 17:03:30:565,37858,0.07486,-0.03544,9.80008,0.00000,0.00000,0.00000,0.39712,-0.16823,-0.69616,-0.38944,110.53284,-0.34595,0.56976,0.00054,-0.00451,0.82180,1,0,
06.29 17:03:30:575,37859,0.00451,-0.02889,9.80065,0.00000,0.00000,0.00000,0.39564,-0.16772,-0.69667,-0.39087,110.53458,-0.34178,0.56975,0.00051,-0.00450,0.82180,1,0,
06.29 17:03:30:585,37860,0.01826,-0.06427,9.81171,0.00000,0.00000,0.00000,0.39712,-0.16873,-0.69617,-0.39012,110.53367,-0.34397,0.56976,0.00053,-0.00451,0.82180,1,0,
06.29 17:03:30:595,37861,0.08707,-0.08206,9.78985,0.00000,0.00000,0.00000,0.39465,-0.16819,-0.69867,-0.39079,110.53265,-0.34662,0.56977,0.00054,-0.00453,0.82179,1,0,
06.29 17:03:30:605,37862,0.07977,-0.09318,9.79593,0.00000,0.00000,0.00000,0.39712,-0.16874,-0.69567,-0.39128,110.53353,-0.34637,0.56976,0.00054,-0.00453,0.82180,1,0,
06.29 17:03:30:616,37863,0.09095,-0.05963,9.78596,0.00000,0.00000,0.00000,0.39613,-0.16772,-0.69667,-0.39109,110.53445,-0.34584,0.56975,0.00054,-0.00452,0.82180,1,0,
06.29 17:03:30:625,37864,0.09701,-0.05464,9.78997,0.00000,0.00000,0.00000,0.39612,-0.16876,-0.69468,-0.38949,110.53419,-0.34727,0.56975,0.00055,-0.00452,0.82180,1,0,
06.29 17:03:30:635,37865,0.11559,-0.04959,9.81226,0.00000,0.00000,0.00000,0.39563,-0.16924,-0.69568,-0.38809,110.53383,-0.34850,0.56976,0.00057,-0.00452,0.82180,1,0,
06.29 17:03:30:645,37866,0.07101,-0.03322,9.80997,0.00000,0.00000,0.00000,0.39612,-0.16776,-0.69468,-0.38760,110.53536,-0.34712,0.56975,0.00056,-0.00451,0.82181,1,0,
06.29 17:03:30:655,37867,0.04880,-0.03295,9.80749,0.00000,0.00000,0.00000,0.39465,-0.16872,-0.69718,-0.38793,110.53730,-0.34403,0.56973,0.00054,-0.00449,0.82182,1,0,
06.29 17:03:30:664,37868,0.05120,-0.04380,9.79540,0.00000,0.00000,0.00000,0.39663,-0.16770,-0.69766,-0.38782,110.53722,-0.34435,0.56973,0.00054,-0.00449,0.82182,1,0,
06.29 17:03:30:675,37869,0.06312,-0.06246,9.80895,0.00000,0.00000,0.00000,0.39763,-0.16820,-0.69765,-0.38851,110.53703,-0.34781,0.56973,0.00056,-0.00452,0.82182,1,0,
06.29 17:03:30:685,37870,0.10559,-0.07636,9.79228,0.00000,0.00000,0.00000,0.39414,-0.16775,-0.69569,-0.38987,110.53802,-0.34766,0.56973,0.00055,-0.00452,0.82182,1,0,
06.29 17:03:30:696,37871,0.05782,-0.06305,9.78894,0.00000,0.00000,0.00000,0.39563,-0.16624,-0.69617,-0.38934,110.53949,-0.34665,0.56972,0.00055,-0.00452,0.82183,1,0,
06.29 17:03:30:705,37872,0.08417,-0.05946,9.79059,0.00000,0.00000,0.00000,0.39613,-0.16823,-0.69617,-0.38819,110.53796,-0.34785,0.56973,0.00056,-0.00451,0.82182,1,0,
06.29 17:03:30:715,37873,0.10367,-0.05749,9.78937,0.00000,0.00000,0.00000,0.39513,-0.16776,-0.69518,-0.38769,110.53654,-0.34903,0.56974,0.00058,-0.00452,0.82181,1,0,
06.29 17:03:30:725,37874,0.08368,-0.05596,9.79984,0.00000,0.00000,0.00000,0.39613,-0.16623,-0.69616,-0.38664,110.53563,-0.34893,0.56974,0.00058,-0.00451,0.82181,1,0,
06.29 17:03:30:735,37875,0.05559,-0.05556,9.79576,0.00000,0.00000,0.00000,0.39464,-0.16724,-0.69618,-0.38762,110.53645,-0.34657,0.56974,0.00056,-0.00450,0.82181,1,0,
06.29 17:03:30:745,37876,0.05736,-0.04771,9.79822,0.00000,0.00000,0.00000,0.39515,-0.16870,-0.69767,-0.38947,110.53782,-0.34606,0.56973,0.00055,-0.00451,0.82182,1,0,
06.29 17:03:30:755,37877,0.07254,-0.06588,9.78756,0.00000,0.00000,0.00000,0.39464,-0.16724,-0.69618,-0.38969,110.53798,-0.34693,0.56973,0.00055,-0.00452,0.82182,1,0,
06.29 17:03:30:765,37878,0.07080,-0.03944,9.78978,0.00000,0.00000,0.00000,0.39614,-0.16821,-0.69717,-0.38757,110.53743,-0.34796,0.56973,0.00057,-0.00451,0.82182,1,0,
06.29 17:03:30:776,37879,0.07123,-0.03758,9.78556,0.00000,0.00000,0.00000,0.39763,-0.16818,-0.69865,-0.38777,110.53786,-0.34720,0.56973,0.00056,-0.00451,0.82182,1,0,
06.29 17:03:30:785,37880,0.05966,-0.03341,9.79054,0.00000,0.00000,0.00000,0.39613,-0.16623,-0.69616,-0.38626,110.53686,-0.34657,0.56973,0.00057,-0.00449,0.82182,1,0,
06.29 17:03:30:794,37881,0.10166,-0.07390,9.78136,0.00000,0.00000,0.00000,0.39515,-0.16919,-0.69817,-0.38674,110.53680,-0.34853,0.56974,0.00058,-0.00451,0.82182,1,0,
06.29 17:03:30:805,37882,0.07746,-0.07259,9.80034,0.00000,0.00000,0.00000,0.39365,-0.16674,-0.69619,-0.38840,110.53660,-0.34898,0.56974,0.00057,-0.00452,0.82181,1,0,
06.29 17:03:30:815,37883,0.06323,-0.06537,9.78751,0.00000,0.00000,0.00000,0.39664,-0.16868,-0.69866,-0.38660,110.53655,-0.34804,0.56974,0.00057,-0.00450,0.82181,1,0,
06.29 17:03:30:825,37884,0.07692,-0.09167,9.78208,0.00000,0.00000,0.00000,0.39714,-0.16768,-0.69865,-0.38544,110.53650,-0.34812,0.56974,0.00058,-0.00450,0.82181,1,0,
06.29 17:03:30:835,37885,0.08599,-0.05042,9.79681,0.00000,0.00000,0.00000,0.39663,-0.16722,-0.69666,-0.38562,110.53618,-0.34995,0.56974,0.00059,-0.00451,0.82181,1,0,
06.29 17:03:30:846,37886,0.08805,-0.04453,9.80687,0.00000,0.00000,0.00000,0.39563,-0.16825,-0.69518,-0.38539,110.53656,-0.34978,0.56974,0.00059,-0.00450,0.82181,1,0,
06.29 17:03:30:855,37887,0.05998,-0.01371,9.82280,0.00000,0.00000,0.00000,0.39463,-0.16727,-0.69469,-0.38645,110.53802,-0.34844,0.56973,0.00058,-0.00450,0.82182,1,0,
06.29 17:03:30:865,37888,0.04723,-0.04100,9.80902,0.00000,0.00000,0.00000,0.39512,-0.16729,-0.69369,-0.38769,110.53825,-0.34835,0.56973,0.00057,-0.00451,0.82182,1,0,
06.29 17:03:30:875,37889,0.05117,-0.07313,9.80275,0.00000,0.00000,0.00000,0.39613,-0.16973,-0.69618,-0.38795,110.53823,-0.34939,0.56973,0.00058,-0.00452,0.82182,1,0,
06.29 17:03:30:884,37890,0.09060,-0.06081,9.79731,0.00000,0.00000,0.00000,0.39563,-0.16774,-0.69568,-0.38745,110.53806,-0.35164,0.56973,0.00060,-0.00453,0.82182,1,0,
06.29 17:03:30:895,37891,0.08150,-0.06347,9.78763,0.00000,0.00000,0.00000,0.39564,-0.16869,-0.69817,-0.38573,110.53765,-0.35096,0.56973,0.00060,-0.00451,0.82182,1,0,
06.29 17:03:30:904,37892,0.08946,-0.05675,9.80775,0.00000,0.00000,0.00000,0.39662,-0.16624,-0.69566,-0.38483,110.53707,-0.35050,0.56973,0.00060,-0.00450,0.82182,1,0,
06.29 17:03:30:915,37893,0.08772,-0.05807,9.78060,0.00000,0.00000,0.00000,0.39415,-0.16923,-0.69669,-0.38725,110.53752,-0.35047,0.56973,0.00059,-0.00452,0.82182,1,0,
06.29 17:03:30:926,37894,0.09697,-0.06210,9.69315,0.00000,0.00000,0.00000,0.39514,-0.16974,-0.69569,-0.38895,110.53743,-0.34962,0.56973,0.00057,-0.00453,0.82182,1,0,
06.29 17:03:30:935,37895,0.07116,-0.07403,9.96530,0.00000,0.00000,0.00000,0.39464,-0.16775,-0.69568,-0.38731,110.53660,-0.34707,0.56974,0.00056,-0.00450,0.82181,1,0,
06.29 17:03:30:945,37896,0.04444,-0.04421,9.67240,0.00000,0.00000,0.00000,0.39464,-0.16723,-0.69668,-0.38718,110.53693,-0.34682,0.56973,0.00056,-0.00450,0.82182,1,0,
06.29 17:03:30:955,37897,0.07699,-0.06921,9.77779,0.00000,0.00000,0.00000,0.39712,-0.16924,-0.69567,-0.38482,110.53625,-0.34577,0.56974,0.00057,-0.00448,0.82181,1,0,
06.29 17:03:30:965,37898,0.07131,-0.00619,9.82919,0.00000,0.00000,0.00000,0.39465,-0.16772,-0.69718,-0.38363,110.53587,-0.34510,0.56974,0.00057,-0.00447,0.82181,1,0,
06.29 17:03:30:974,37899,0.04815,-0.02305,10.06687,0.00000,0.00000,0.00000,0.39712,-0.17024,-0.69567,-0.38350,110.53564,-0.34453,0.56974,0.00056,-0.00446,0.82181,1,0,
06.29 17:03:30:985,37900,0.06818,-0.06495,9.56077,0.00000,0.00000,0.00000,0.39563,-0.16924,-0.69568,-0.38662,110.53611,-0.34544,0.56974,0.00056,-0.00449,0.82181,1,0,
06.29 17:03:30:995,37901,0.07714,-0.10161,9.77245,0.00000,0.00000,0.00000,0.39613,-0.17023,-0.69618,-0.38566,110.53471,-0.34545,0.56975,0.00056,-0.00448,0.82181,1,0,
06.29 17:03:31:006,37902,0.09310,-0.03530,9.89027,0.00000,0.00000,0.00000,0.39563,-0.16725,-0.69518,-0.38616,110.53541,-0.34701,0.56975,0.00057,-0.00449,0.82181,1,0,
06.29 17:03:31:014,37903,0.09661,-0.09435,9.76510,0.00000,0.00000,0.00000,0.39463,-0.16729,-0.69369,-0.38476,110.53466,-0.34954,0.56975,0.00059,-0.00450,0.82181,1,0,
06.29 17:03:31:025,37904,0.01475,-0.32871,9.75909,0.00000,0.00000,0.00000,0.39514,-0.16624,-0.69617,-0.38594,110.53434,-0.34851,0.56975,0.00058,-0.00450,0.82180,1,0,
06.29 17:03:31:035,37905,-2.06468,-5.91948,10.64719,0.00000,0.00000,0.00000,0.39563,-0.16874,-0.69568,-0.44936,110.49047,-0.27068,0.57007,-0.00029,-0.00457,0.82159,1,0,
06.29 17:03:31:045,37906,-3.54559,-3.05776,9.20994,0.00000,0.00000,0.00000,0.39909,-0.16727,-0.69366,-0.42974,110.46396,-0.14165,0.57025,-0.00112,-0.00379,0.82146,1,0,
06.29 17:03:31:055,37907,-0.09836,-0.34872,9.36505,0.00000,0.00000,0.00000,0.39763,-0.16469,-0.69814,-0.42080,110.46593,-0.25734,0.57024,-0.00025,-0.00430,0.82147,1,0,
06.29 17:03:31:065,37908,2.02664,5.25167,10.49419,0.00000,0.00000,0.00000,0.39515,-0.16620,-0.69816,-0.38009,110.33280,-0.34617,0.57120,0.00058,-0.00445,0.82080,1,0,
06.29 17:03:31:075,37909,0.41542,1.61204,9.88844,0.00000,0.00000,0.00000,0.39663,-0.16372,-0.69715,-0.41238,110.11751,-0.27764,0.57274,-0.00007,-0.00434,0.81973,1,0,
06.29 17:03:31:086,37910,0.13256,1.01931,9.70094,0.00000,0.00000,0.00000,0.40012,-0.16116,-0.69960,-0.40654,109.95220,-0.28588,0.57392,0.00001,-0.00434,0.81890,1,0,
06.29 17:03:31:095,37911,1.59434,0.71159,9.94187,0.00000,0.00000,0.00000,0.39565,-0.16066,-0.70013,-0.40897,109.82816,-0.42463,0.57481,0.00098,-0.00505,0.81827,1,0,
06.29 17:03:31:105,37912,1.16152,0.55054,10.02949,0.00000,0.00000,0.00000,0.39663,-0.16123,-0.69664,-0.40225,109.65646,-0.45664,0.57603,0.00124,-0.00516,0.81741,1,0,
06.29 17:03:31:115,37913,0.10301,-0.70141,9.88966,0.00000,0.00000,0.00000,0.39417,-0.15765,-0.70113,-0.41731,109.45748,-0.49676,0.57745,0.00144,-0.00548,0.81641,1,0,
06.29 17:03:31:125,37914,0.51271,-1.46036,9.86522,0.00000,0.00000,0.00000,0.39366,-0.15467,-0.70012,-0.45655,109.14227,-0.57019,0.57970,0.00174,-0.00613,0.81481,1,0,
06.29 17:03:31:135,37915,0.88345,-1.67844,10.46234,0.00000,0.00000,0.00000,0.39416,-0.15167,-0.70061,-0.53042,108.69582,-0.66059,0.58287,0.00199,-0.00712,0.81253,1,0,
06.29 17:03:31:145,37916,0.51135,-1.01340,12.50915,0.00000,0.00000,0.00000,0.38970,-0.14417,-0.70161,-0.65414,108.16707,-0.76340,0.58661,0.00205,-0.00853,0.80982,1,0,
06.29 17:03:31:155,37917,0.19155,0.15294,11.30226,0.00000,0.00000,0.00000,0.38819,-0.13876,-0.69762,-0.84828,107.55991,-0.89151,0.59090,0.00190,-0.01057,0.80667,1,0,
06.29 17:03:31:165,37918,1.65453,-0.39567,11.57508,0.00000,0.00000,0.00000,0.38770,-0.12670,-0.70107,-1.17438,106.83427,-1.05372,0.59600,0.00128,-0.01371,0.80286,1,0,
06.29 17:03:31:175,37919,3.21470,-0.58967,11.96877,0.00000,0.00000,0.00000,0.38572,-0.11820,-0.70205,-1.50274,106.06480,-1.07866,0.60138,-0.00037,-0.01614,0.79880,1,0,
06.29 17:03:31:185,37920,2.29236,-0.41994,11.42269,0.00000,0.00000,0.00000,0.38570,-0.10478,-0.69852,-1.81253,105.30340,-0.92042,0.60666,-0.00321,-0.01745,0.79476,1,0,
06.29 17:03:31:195,37921,2.03670,-0.03391,11.02781,0.00000,0.00000,0.00000,0.38666,-0.09440,-0.69300,-2.19459,104.55283,-0.69041,0.61182,-0.00695,-0.01883,0.79074,1,0,
06.29 17:03:31:205,37922,2.23713,-0.19648,10.01207,0.00000,0.00000,0.00000,0.39059,-0.08152,-0.68695,-2.69236,103.82437,-0.50913,0.61677,-0.01100,-0.02123,0.78678,1,0,
06.29 17:03:31:215,37923,2.18302,-0.61683,10.48311,0.00000,0.00000,0.00000,0.38759,-0.06763,-0.68294,-3.33511,103.14868,-0.44441,0.62132,-0.01505,-0.02521,0.78301,1,0,
06.29 17:03:31:224,37924,2.11801,-1.16174,11.44189,0.00000,0.00000,0.00000,0.39103,-0.05074,-0.67788,-4.07414,102.54644,-0.44380,0.62531,-0.01922,-0.03015,0.77955,1,0,
06.29 17:03:31:235,37925,1.97585,-2.11533,11.96900,0.00000,0.00000,0.00000,0.38553,-0.03689,-0.67190,-4.84724,102.03866,-0.49865,0.62863,-0.02322,-0.03561,0.77654,1,0,
06.29 17:03:31:245,37926,2.02388,-2.53599,12.33988,0.00000,0.00000,0.00000,0.38849,-0.02045,-0.66933,-5.55647,101.62708,-0.52393,0.63127,-0.02709,-0.04045,0.77403,1,0,
06.29 17:03:31:255,37927,1.95282,-2.51442,12.20530,0.00000,0.00000,0.00000,0.38547,-0.01014,-0.66085,-6.16629,101.28871,-0.47272,0.63338,-0.03092,-0.04420,0.77196,1,0,
06.29 17:03:31:264,37928,1.31322,-3.06679,12.04708,0.00000,0.00000,0.00000,0.38691,-0.00129,-0.65384,-6.69427,100.99679,-0.35304,0.63515,-0.03477,-0.04701,0.77017,1,0,
06.29 17:03:31:275,37929,1.40296,-2.82234,11.85973,0.00000,0.00000,0.00000,0.38885,0.00604,-0.64534,-7.09680,100.74525,-0.20638,0.63665,-0.03809,-0.04882,0.76866,1,0,
06.29 17:03:31:285,37930,1.37110,-2.20987,11.33925,0.00000,0.00000,0.00000,0.39179,0.01290,-0.63832,-7.39494,100.48713,-0.02418,0.63820,-0.04108,-0.04971,0.76716,1,0,
06.29 17:03:31:295,37931,1.04577,-1.74000,10.37381,0.00000,0.00000,0.00000,0.39571,0.02073,-0.62980,-7.62723,100.19677,0.17560,0.63997,-0.04384,-0.05004,0.76551,1,0,
06.29 17:03:31:305,37932,0.96680,-1.47248,9.35789,0.00000,0.00000,0.00000,0.39866,0.02312,-0.62380,-7.82395,99.86855,0.35691,0.64200,-0.04629,-0.05021,0.76366,1,0,
06.29 17:03:31:314,37933,0.67460,-1.52338,8.83503,0.00000,0.00000,0.00000,0.39714,0.03199,-0.61830,-8.01959,99.52981,0.48299,0.64411,-0.04838,-0.05067,0.76172,1,0,
06.29 17:03:31:326,37934,-0.41894,-2.87538,10.97888,0.00000,0.00000,0.00000,0.40106,0.03434,-0.61030,-8.11450,99.21355,0.55956,0.64613,-0.04956,-0.05073,0.75992,1,0,
06.29 17:03:31:335,37935,1.16375,-3.06375,10.53343,0.00000,0.00000,0.00000,0.40204,0.03476,-0.60631,-7.84260,98.96860,0.60924,0.64785,-0.04846,-0.04854,0.75867,1,0,
06.29 17:03:31:345,37936,0.22262,-2.58869,9.77651,0.00000,0.00000,0.00000,0.40302,0.03172,-0.60382,-7.54133,98.66151,0.76376,0.64993,-0.04790,-0.04555,0.75711,1,0,
06.29 17:03:31:355,37937,0.41411,-1.20270,11.15372,0.00000,0.00000,0.00000,0.40498,0.02962,-0.59884,-7.17047,98.36738,0.92293,0.65195,-0.04696,-0.04207,0.75563,1,0,
06.29 17:03:31:365,37938,0.56410,0.47273,9.84583,0.00000,0.00000,0.00000,0.40842,0.02704,-0.59384,-6.77899,98.04092,1.17161,0.65415,-0.04648,-0.03794,0.75398,1,0,
06.29 17:03:31:375,37939,0.42584,0.68074,9.19728,0.00000,0.00000,0.00000,0.41534,0.02443,-0.58733,-6.56190,97.64978,1.46610,0.65668,-0.04729,-0.03467,0.75189,1,0,
06.29 17:03:31:385,37940,0.48820,0.64781,8.09296,0.00000,0.00000,0.00000,0.41879,0.02734,-0.58281,-6.56246,97.21176,1.76219,0.65941,-0.04936,-0.03278,0.74944,1,0,
06.29 17:03:31:395,37941,0.09825,0.16395,7.77225,0.00000,0.00000,0.00000,0.42172,0.03367,-0.57430,-6.75661,96.75454,2.00094,0.66220,-0.05217,-0.03247,0.74681,1,0,
06.29 17:03:31:405,37942,-0.19378,-0.68151,7.70496,0.00000,0.00000,0.00000,0.42268,0.03606,-0.56881,-7.08541,96.30309,2.13966,0.66491,-0.05510,-0.03359,0.74413,1,0,
06.29 17:03:31:415,37943,-0.04232,-1.41888,7.88243,0.00000,0.00000,0.00000,0.42611,0.04291,-0.56079,-7.49608,95.88950,2.20555,0.66736,-0.05804,-0.03566,0.74162,1,0,
06.29 17:03:31:425,37944,-0.31622,-2.05607,7.65000,0.00000,0.00000,0.00000,0.42755,0.05324,-0.55278,-7.96872,95.54039,2.22907,0.66935,-0.06106,-0.03840,0.73943,1,0,
06.29 17:03:31:435,37945,-0.62294,-1.84734,7.95350,0.00000,0.00000,0.00000,0.42704,0.05967,-0.54978,-8.53983,95.26276,2.22616,0.67083,-0.06448,-0.04194,0.73761,1,0,
06.29 17:03:31:445,37946,-0.80521,-1.93522,8.51833,0.00000,0.00000,0.00000,0.42750,0.06755,-0.54427,-9.19713,95.04085,2.22351,0.67188,-0.06840,-0.04606,0.73606,1,0,
06.29 17:03:31:455,37947,-1.03057,-2.23361,8.30325,0.00000,0.00000,0.00000,0.43092,0.07484,-0.53377,-9.90162,94.87528,2.25737,0.67249,-0.07282,-0.05028,0.73480,1,0,
06.29 17:03:31:465,37948,-1.11071,-2.10428,7.85633,0.00000,0.00000,0.00000,0.43039,0.08473,-0.52876,-10.62955,94.76299,2.33894,0.67267,-0.07766,-0.05439,0.73384,1,0,
06.29 17:03:31:475,37949,-1.44668,-1.95752,7.43155,0.00000,0.00000,0.00000,0.43234,0.09410,-0.52274,-11.39559,94.69485,2.42724,0.67251,-0.08275,-0.05872,0.73310,1,0,
06.29 17:03:31:485,37950,-1.74249,-1.88950,7.39348,0.00000,0.00000,0.00000,0.43478,0.10194,-0.51473,-12.20215,94.66198,2.47615,0.67208,-0.08781,-0.06357,0.73250,1,0,
06.29 17:03:31:495,37951,-1.33986,-1.85931,8.17379,0.00000,0.00000,0.00000,0.43623,0.11031,-0.50871,-13.02925,94.65354,2.47317,0.67148,-0.09265,-0.06886,0.73197,1,0,
06.29 17:03:31:505,37952,-1.33551,-2.14362,8.64297,0.00000,0.00000,0.00000,0.44016,0.11818,-0.50168,-13.81080,94.64933,2.45936,0.67087,-0.09714,-0.07393,0.73145,1,0,
06.29 17:03:31:515,37953,-1.44561,-2.35888,8.83909,0.00000,0.00000,0.00000,0.43665,0.12452,-0.49472,-14.48851,94.65551,2.45279,0.67025,-0.10106,-0.07830,0.73104,1,0,
06.29 17:03:31:525,37954,-1.51590,-2.42120,9.01293,0.00000,0.00000,0.00000,0.43910,0.13142,-0.48970,-15.05688,94.68179,2.45284,0.66958,-0.10437,-0.08195,0.73079,1,0,
06.29 17:03:31:535,37955,-1.47520,-2.55151,9.08068,0.00000,0.00000,0.00000,0.44058,0.13436,-0.48669,-15.53088,94.73285,2.45128,0.66882,-0.10709,-0.08503,0.73074,1,0,
06.29 17:03:31:544,37956,-1.28891,-3.05556,9.04153,0.00000,0.00000,0.00000,0.44155,0.13580,-0.48369,-15.92966,94.80769,2.44949,0.66796,-0.10935,-0.08765,0.73088,1,0,
06.29 17:03:31:555,37957,-1.22396,-2.95976,8.88027,0.00000,0.00000,0.00000,0.44351,0.14022,-0.47968,-16.25490,94.90736,2.46570,0.66700,-0.11127,-0.08973,0.73122,1,0,
06.29 17:03:31:565,37958,-1.21120,-2.91309,8.70666,0.00000,0.00000,0.00000,0.44350,0.14166,-0.47669,-16.51542,95.03127,2.48360,0.66593,-0.11280,-0.09141,0.73175,1,0,
06.29 17:03:31:575,37959,-1.33896,-2.89706,8.81367,0.00000,0.00000,0.00000,0.44596,0.14160,-0.47368,-16.68525,95.17437,2.47301,0.66486,-0.11360,-0.09270,0.73243,1,0,
06.29 17:03:31:586,37960,-1.25948,-3.05164,9.08154,0.00000,0.00000,0.00000,0.44844,0.14311,-0.47366,-16.73465,95.32999,2.42394,0.66387,-0.11345,-0.09345,0.73326,1,0,
06.29 17:03:31:595,37961,-1.18298,-3.09568,9.47241,0.00000,0.00000,0.00000,0.44844,0.14060,-0.47317,-16.64242,95.49151,2.35002,0.66301,-0.11231,-0.09345,0.73422,1,0,
06.29 17:03:31:605,37962,-1.15209,-2.95043,9.92909,0.00000,0.00000,0.00000,0.44944,0.13814,-0.47466,-16.41533,95.64478,2.27872,0.66232,-0.11042,-0.09256,0.73524,1,0,
06.29 17:03:31:615,37963,-1.15862,-2.87599,10.05100,0.00000,0.00000,0.00000,0.44999,0.13633,-0.48412,-16.07639,95.78336,2.22777,0.66180,-0.10803,-0.09081,0.73627,1,0,
06.29 17:03:31:625,37964,-1.03348,-2.95657,10.00266,0.00000,0.00000,0.00000,0.45046,0.12724,-0.47917,-15.65510,95.91084,2.20323,0.66140,-0.10534,-0.08837,0.73732,1,0,
06.29 17:03:31:635,37965,-0.98679,-3.00865,9.75227,0.00000,0.00000,0.00000,0.45149,0.12235,-0.48416,-15.17023,96.03496,2.20378,0.66104,-0.10245,-0.08535,0.73841,1,0,
06.29 17:03:31:645,37966,-0.91134,-2.92693,9.48511,0.00000,0.00000,0.00000,0.45397,0.11689,-0.48515,-14.65635,96.16667,2.21169,0.66064,-0.09944,-0.08211,0.73955,1,0,
06.29 17:03:31:655,37967,-0.81009,-2.76801,9.40773,0.00000,0.00000,0.00000,0.45498,0.10946,-0.48816,-14.16443,96.31338,2.22166,0.66010,-0.09657,-0.07900,0.74074,1,0,
06.29 17:03:31:665,37968,-0.62448,-2.40717,9.53849,0.00000,0.00000,0.00000,0.45650,0.10105,-0.49216,-13.76527,96.48681,2.22256,0.65931,-0.09416,-0.07656,0.74201,1,0,
06.29 17:03:31:675,37969,-0.43155,-1.81362,9.69919,0.00000,0.00000,0.00000,0.45752,0.09868,-0.49813,-13.58138,96.69061,2.21834,0.65814,-0.09294,-0.07555,0.74330,1,0,
06.29 17:03:31:685,37970,-0.23390,-1.60750,9.93086,0.00000,0.00000,0.00000,0.45948,0.09559,-0.49315,-13.69931,96.92623,2.23242,0.65651,-0.09355,-0.07643,0.74459,1,0,
06.29 17:03:31:695,37971,-0.19793,-1.24805,9.84347,0.00000,0.00000,0.00000,0.46145,0.09552,-0.48965,-14.16226,97.19746,2.30779,0.65429,-0.09650,-0.07923,0.74587,1,0,
06.29 17:03:31:704,37972,-0.38002,-1.69972,9.68136,0.00000,0.00000,0.00000,0.46391,0.09844,-0.48564,-14.97453,97.51829,2.45216,0.65136,-0.10183,-0.08397,0.74720,1,0,
06.29 17:03:31:715,37973,-1.00629,-1.53731,9.47150,0.00000,0.00000,0.00000,0.46934,0.10634,-0.48009,-16.11271,97.90862,2.64136,0.64757,-0.10922,-0.09068,0.74867,1,0,
06.29 17:03:31:725,37974,-0.80291,-1.82790,9.35006,0.00000,0.00000,0.00000,0.47378,0.11779,-0.47753,-17.49790,98.34693,2.87120,0.64308,-0.11815,-0.09887,0.75014,1,0,
06.29 17:03:31:735,37975,-1.71259,-1.34686,9.68956,0.00000,0.00000,0.00000,0.47869,0.12408,-0.46651,-19.10232,98.83941,3.13775,0.63780,-0.12840,-0.10841,0.75164,1,0,
06.29 17:03:31:745,37976,-2.09923,-1.19191,8.75800,0.00000,0.00000,0.00000,0.48505,0.13375,-0.45000,-21.01931,99.35297,3.30760,0.63197,-0.13962,-0.12064,0.75271,1,0,
06.29 17:03:31:755,37977,-2.22992,-1.68343,7.77656,0.00000,0.00000,0.00000,0.48798,0.15159,-0.44245,-23.25490,99.86612,3.37087,0.62566,-0.15172,-0.13563,0.75308,1,0,
06.29 17:03:31:765,37978,-1.89369,-2.53933,6.93743,0.00000,0.00000,0.00000,0.49134,0.16766,-0.42146,-25.78749,100.38511,3.29829,0.61888,-0.16435,-0.15339,0.75263,1,0,
06.29 17:03:31:775,37979,-1.49253,-3.97361,7.12191,0.00000,0.00000,0.00000,0.48827,0.18381,-0.40550,-28.48486,100.92181,3.18203,0.61153,-0.17731,-0.17253,0.75155,1,0,
06.29 17:03:31:785,37980,-0.77744,-5.17665,7.31189,0.00000,0.00000,0.00000,0.48868,0.20599,-0.39049,-31.20786,101.47950,3.08765,0.60369,-0.19026,-0.19177,0.75006,1,0,
06.29 17:03:31:795,37981,-0.63112,-5.74169,7.32411,0.00000,0.00000,0.00000,0.49404,0.22613,-0.37295,-33.90627,102.05544,3.05622,0.59535,-0.20316,-0.21057,0.74829,1,0,
06.29 17:03:31:805,37982,-0.59271,-6.17512,7.27536,0.00000,0.00000,0.00000,0.49146,0.24073,-0.35451,-36.52463,102.62346,3.13281,0.58669,-0.21607,-0.22828,0.74632,1,0,
06.29 17:03:31:815,37983,-0.20404,-5.58868,7.39443,0.00000,0.00000,0.00000,0.49731,0.25487,-0.33649,-39.04684,103.14829,3.31449,0.57795,-0.22897,-0.24476,0.74407,1,0,
06.29 17:03:31:825,37984,-0.15252,-5.20787,6.83074,0.00000,0.00000,0.00000,0.50067,0.26644,-0.31552,-41.51585,103.58606,3.60298,0.56931,-0.24220,-0.26018,0.74130,1,0,
06.29 17:03:31:834,37985,-0.31226,-4.77434,6.57111,0.00000,0.00000,0.00000,0.50305,0.28108,-0.29803,-43.96298,103.92959,3.95605,0.56084,-0.25570,-0.27492,0.73790,1,0,
06.29 17:03:31:845,37986,-0.53064,-4.26591,6.24824,0.00000,0.00000,0.00000,0.50691,0.29166,-0.27706,-46.40678,104.17190,4.34154,0.55260,-0.26939,-0.28922,0.73377,1,0,
06.29 17:03:31:855,37987,-1.01396,-4.50960,5.99312,0.00000,0.00000,0.00000,0.51273,0.29866,-0.25160,-48.85222,104.35509,4.72222,0.54440,-0.28299,-0.30337,0.72905,1,0,
06.29 17:03:31:864,37988,-0.84351,-5.03186,4.99972,0.00000,0.00000,0.00000,0.51661,0.31082,-0.23510,-51.26322,104.52312,5.06194,0.53618,-0.29599,-0.31739,0.72399,1,0,
06.29 17:03:31:875,37989,-1.34357,-6.35812,4.25994,0.00000,0.00000,0.00000,0.51944,0.31878,-0.20817,-53.58992,104.69526,5.35958,0.52799,-0.30812,-0.33103,0.71882,1,0,
06.29 17:03:31:885,37990,-1.31737,-7.47392,3.79598,0.00000,0.00000,0.00000,0.51932,0.32981,-0.18574,-55.75558,104.85753,5.62232,0.52016,-0.31913,-0.34373,0.71375,1,0,
06.29 17:03:31:896,37991,-1.15097,-8.00537,4.00601,0.00000,0.00000,0.00000,0.52666,0.33396,-0.16725,-57.73358,104.97218,5.87743,0.51295,-0.32921,-0.35510,0.70880,1,0,
06.29 17:03:31:905,37992,-0.98448,-8.05798,4.43071,0.00000,0.00000,0.00000,0.52755,0.33804,-0.14682,-59.56856,105.02179,6.14931,0.50631,-0.33882,-0.36525,0.70388,1,0,
06.29 17:03:31:915,37993,-1.21078,-7.96230,4.35326,0.00000,0.00000,0.00000,0.53241,0.34517,-0.12834,-61.33513,105.03765,6.42270,0.49990,-0.34812,-0.37480,0.69888,1,0,
06.29 17:03:31:925,37994,-1.37269,-8.58963,4.26359,0.00000,0.00000,0.00000,0.53332,0.34285,-0.11192,-63.09483,105.04913,6.66975,0.49347,-0.35713,-0.38436,0.69370,1,0,
06.29 17:03:31:935,37995,-1.67437,-9.00092,3.76154,0.00000,0.00000,0.00000,0.53371,0.34946,-0.09298,-64.86909,105.07442,6.90938,0.48678,-0.36600,-0.39401,0.68837,1,0,
06.29 17:03:31:945,37996,-1.68791,-8.89132,3.54385,0.00000,0.00000,0.00000,0.53611,0.35166,-0.07802,-66.57570,105.11131,7.14449,0.48010,-0.37440,-0.40324,0.68318,1,0,
06.29 17:03:31:955,37997,-1.76333,-8.67305,3.74714,0.00000,0.00000,0.00000,0.53998,0.35226,-0.05758,-68.16780,105.15031,7.37394,0.47366,-0.38216,-0.41176,0.67827,1,0,
06.29 17:03:31:965,37998,-1.83590,-8.64824,3.87515,0.00000,0.00000,0.00000,0.53842,0.35148,-0.04416,-69.62559,105.17436,7.59401,0.46769,-0.38927,-0.41942,0.67366,1,0,
06.29 17:03:31:976,37999,-2.03168,-8.95057,3.92878,0.00000,0.00000,0.00000,0.54480,0.35274,-0.03116,-70.90923,105.18319,7.79756,0.46237,-0.39556,-0.42604,0.66950,1,0,
06.29 17:03:31:985,38000,-1.98421,-9.38238,3.82308,0.00000,0.00000,0.00000,0.54623,0.35302,-0.02020,-71.98048,105.17563,7.97338,0.45793,-0.40084,-0.43145,0.66594,1,0,
06.29 17:03:31:995,38001,-1.83317,-10.08308,3.55991,0.00000,0.00000,0.00000,0.54618,0.35383,-0.01074,-72.83332,105.15744,8.11730,0.45441,-0.40507,-0.43568,0.66303,1,0,
06.29 17:03:32:005,38002,-1.95844,-10.42551,3.30561,0.00000,0.00000,0.00000,0.54614,0.35319,-0.00377,-73.45757,105.10352,8.22319,0.45204,-0.40831,-0.43861,0.66073,1,0,
06.29 17:03:32:016,38003,-2.08799,-10.70086,3.15691,0.00000,0.00000,0.00000,0.54561,0.35103,0.00418,-73.86456,105.02991,8.29098,0.45071,-0.41056,-0.44039,0.65907,1,0,
06.29 17:03:32:025,38004,-2.26284,-10.76776,3.30049,0.00000,0.00000,0.00000,0.54808,0.35300,0.00570,-74.08024,104.96146,8.31367,0.45022,-0.41179,-0.44128,0.65803,1,0,
06.29 17:03:32:035,38005,-2.15271,-10.78969,3.33683,0.00000,0.00000,0.00000,0.54757,0.35193,0.00917,-74.12578,104.89877,8.29315,0.45051,-0.41210,-0.44141,0.65755,1,0,
06.29 17:03:32:045,38006,-1.99731,-10.69239,3.11749,0.00000,0.00000,0.00000,0.54557,0.35389,0.01066,-74.00487,104.83854,8.24033,0.45153,-0.41158,-0.44074,0.65763,1,0,
06.29 17:03:32:055,38007,-1.84317,-10.69236,2.90235,0.00000,0.00000,0.00000,0.54461,0.35301,0.00467,-73.70995,104.77118,8.15822,0.45334,-0.41024,-0.43917,0.65827,1,0,
06.29 17:03:32:065,38008,-1.83998,-10.78983,2.91837,0.00000,0.00000,0.00000,0.54312,0.35552,0.00417,-73.25280,104.69611,8.04304,0.45591,-0.40810,-0.43680,0.65940,1,0,
06.29 17:03:32:076,38009,-1.90345,-11.15273,3.02350,0.00000,0.00000,0.00000,0.54316,0.35515,-0.00230,-72.64701,104.60986,7.89497,0.45921,-0.40522,-0.43368,0.66094,1,0,
06.29 17:03:32:085,38010,-1.81574,-11.52915,3.29941,0.00000,0.00000,0.00000,0.53873,0.35377,-0.00881,-71.90393,104.54435,7.71765,0.46297,-0.40153,-0.42997,0.66299,1,0,
06.29 17:03:32:095,38011,-1.71764,-11.55280,3.74493,0.00000,0.00000,0.00000,0.53777,0.35589,-0.01528,-71.05295,104.51576,7.52462,0.46694,-0.39715,-0.42582,0.66552,1,0,
06.29 17:03:32:106,38012,-1.54588,-11.30294,4.42073,0.00000,0.00000,0.00000,0.53832,0.35961,-0.02621,-70.12208,104.51057,7.32615,0.47102,-0.39228,-0.42130,0.66840,1,0,
06.29 17:03:32:115,38013,-1.32705,-11.22255,5.15066,0.00000,0.00000,0.00000,0.53688,0.36229,-0.03517,-69.12629,104.47986,7.13323,0.47540,-0.38723,-0.41627,0.67140,1,0,
06.29 17:03:32:125,38014,-1.15516,-11.17283,5.61634,0.00000,0.00000,0.00000,0.53444,0.36196,-0.04415,-68.05131,104.38709,6.96067,0.48027,-0.38213,-0.41045,0.67443,1,0,
06.29 17:03:32:135,38015,-1.09337,-11.34615,5.71086,0.00000,0.00000,0.00000,0.53201,0.36064,-0.05313,-66.85874,104.21472,6.80794,0.48586,-0.37687,-0.40356,0.67754,1,0,
06.29 17:03:32:145,38016,-1.11272,-11.40341,5.48162,0.00000,0.00000,0.00000,0.53010,0.35943,-0.06809,-65.47015,103.97377,6.66932,0.49237,-0.37101,-0.39519,0.68099,1,0,
06.29 17:03:32:155,38017,-1.07292,-11.20719,5.27443,0.00000,0.00000,0.00000,0.52868,0.35718,-0.08055,-63.83956,103.68778,6.53389,0.49984,-0.36416,-0.38520,0.68496,1,0,
06.29 17:03:32:165,38018,-1.00249,-10.98450,5.07234,0.00000,0.00000,0.00000,0.52876,0.35849,-0.09597,-61.97210,103.38461,6.38920,0.50808,-0.35613,-0.37374,0.68945,1,0,
06.29 17:03:32:175,38019,-1.15129,-10.70049,4.80410,0.00000,0.00000,0.00000,0.52687,0.35336,-0.11392,-59.89132,103.07185,6.22632,0.51696,-0.34689,-0.36101,0.69433,1,0,
06.29 17:03:32:185,38020,-1.01913,-10.16089,4.55830,0.00000,0.00000,0.00000,0.52351,0.34826,-0.13388,-57.60693,102.72327,6.03073,0.52660,-0.33643,-0.34704,0.69934,1,0,
06.29 17:03:32:195,38021,-0.78910,-9.39425,4.43848,0.00000,0.00000,0.00000,0.52163,0.34568,-0.15481,-55.13914,102.38719,5.79518,0.53659,-0.32460,-0.33212,0.70456,1,0,
06.29 17:03:32:205,38022,-0.71205,-8.60943,4.88683,0.00000,0.00000,0.00000,0.52025,0.33858,-0.17475,-52.56625,102.08426,5.50996,0.54654,-0.31160,-0.31684,0.70979,1,0,
06.29 17:03:32:215,38023,-0.73361,-8.11037,5.68649,0.00000,0.00000,0.00000,0.51642,0.32911,-0.20070,-49.95173,101.81834,5.18367,0.55618,-0.29779,-0.30154,0.71489,1,0,
06.29 17:03:32:225,38024,-0.56409,-7.68938,6.92140,0.00000,0.00000,0.00000,0.51358,0.32212,-0.22613,-47.32432,101.57310,4.82671,0.56545,-0.28339,-0.28630,0.71971,1,0,
06.29 17:03:32:235,38025,-0.38203,-7.27544,7.93323,0.00000,0.00000,0.00000,0.51074,0.31263,-0.25157,-44.69084,101.29990,4.46108,0.57456,-0.26872,-0.27095,0.72406,1,0,
06.29 17:03:32:245,38026,-0.35167,-7.12601,8.31527,0.00000,0.00000,0.00000,0.50639,0.30258,-0.27354,-42.04064,100.95032,4.12376,0.58372,-0.25404,-0.25513,0.72777,1,0,
06.29 17:03:32:255,38027,-0.37914,-6.95938,8.15101,0.00000,0.00000,0.00000,0.50453,0.29103,-0.29549,-39.34579,100.52454,3.84195,0.59294,-0.23936,-0.23855,0.73090,1,0,
06.29 17:03:32:265,38028,-0.51346,-6.85452,7.77863,0.00000,0.00000,0.00000,0.49871,0.27452,-0.31999,-36.56520,100.03284,3.62786,0.60222,-0.22450,-0.22094,0.73357,1,0,
06.29 17:03:32:275,38029,-0.48642,-6.56785,7.41852,0.00000,0.00000,0.00000,0.49882,0.25995,-0.34044,-33.68760,99.50451,3.48288,0.61137,-0.20933,-0.20227,0.73586,1,0,
06.29 17:03:32:285,38030,-0.76341,-6.03345,6.90300,0.00000,0.00000,0.00000,0.49346,0.24333,-0.35946,-30.73608,98.96786,3.39214,0.62019,-0.19379,-0.18284,0.73782,1,0,
06.29 17:03:32:295,38031,-1.01026,-5.39920,6.55095,0.00000,0.00000,0.00000,0.49310,0.22432,-0.38242,-27.76505,98.45335,3.31179,0.62848,-0.17787,-0.16330,0.73940,1,0,
06.29 17:03:32:305,38032,-1.02915,-4.93978,5.99958,0.00000,0.00000,0.00000,0.49272,0.20328,-0.40440,-24.82942,98.01369,3.17909,0.63588,-0.16142,-0.14444,0.74077,1,0,
06.29 17:03:32:315,38033,-1.11601,-4.50256,6.50114,0.00000,0.00000,0.00000,0.49184,0.18368,-0.42339,-21.96026,97.66557,2.92397,0.64234,-0.14419,-0.12685,0.74197,1,0,
06.29 17:03:32:325,38034,-0.86382,-3.65290,5.70736,0.00000,0.00000,0.00000,0.48500,0.15859,-0.44345,-19.21174,97.38641,2.56822,0.64786,-0.12672,-0.11073,0.74294,1,0,
06.29 17:03:32:335,38035,-0.94803,-3.18234,6.90485,0.00000,0.00000,0.00000,0.48313,0.13801,-0.46344,-16.62580,97.16661,2.12917,0.65245,-0.10941,-0.09624,0.74369,1,0,
06.29 17:03:32:344,38036,-0.71023,-2.10876,6.93975,0.00000,0.00000,0.00000,0.47480,0.11738,-0.48200,-14.19285,97.01690,1.59580,0.65608,-0.09219,-0.08337,0.74438,1,0,
06.29 17:03:32:354,38037,-0.19606,-0.41796,7.07449,0.00000,0.00000,0.00000,0.47045,0.09731,-0.50251,-11.98322,96.91911,1.05538,0.65878,-0.07607,-0.07205,0.74500,1,0,
06.29 17:03:32:366,38038,0.14022,0.76728,7.50520,0.00000,0.00000,0.00000,0.46507,0.07711,-0.51706,-10.07269,96.86986,0.53646,0.66059,-0.06173,-0.06259,0.74558,1,0,
06.29 17:03:32:375,38039,-0.49782,1.24435,7.73432,0.00000,0.00000,0.00000,0.46017,0.05729,-0.52613,-8.56164,96.92575,0.12863,0.66119,-0.05034,-0.05513,0.74649,1,0,
06.29 17:03:32:384,38040,0.27910,0.94675,8.38255,0.00000,0.00000,0.00000,0.45677,0.04407,-0.53964,-7.46769,97.06883,-0.17875,0.66084,-0.04196,-0.04983,0.74769,1,0,
06.29 17:03:32:395,38041,1.04812,0.98343,8.47949,0.00000,0.00000,0.00000,0.45433,0.03171,-0.54618,-6.68279,97.23973,-0.38914,0.66007,-0.03599,-0.04597,0.74893,1,0,
06.29 17:03:32:405,38042,1.11679,1.01782,8.42965,0.00000,0.00000,0.00000,0.45138,0.02332,-0.55170,-6.15797,97.39299,-0.48573,0.65926,-0.03227,-0.04314,0.74998,1,0,
06.29 17:03:32:415,38043,0.69304,0.80991,8.18289,0.00000,0.00000,0.00000,0.45237,0.01631,-0.55073,-5.86141,97.51460,-0.45613,0.65854,-0.03072,-0.04106,0.75080,1,0,
06.29 17:03:32:426,38044,-0.35999,0.35399,7.80931,0.00000,0.00000,0.00000,0.45385,0.01330,-0.54973,-5.79002,97.63866,-0.33121,0.65770,-0.03108,-0.03991,0.75158,1,0,
06.29 17:03:32:435,38045,-0.89505,-0.39047,7.68319,0.00000,0.00000,0.00000,0.45434,0.01326,-0.54773,-5.92720,97.78584,-0.19063,0.65665,-0.03274,-0.04005,0.75242,1,0,
06.29 17:03:32:445,38046,-0.65538,-0.57134,7.71633,0.00000,0.00000,0.00000,0.45831,0.01425,-0.54670,-6.22640,97.96988,-0.08281,0.65532,-0.03510,-0.04145,0.75340,1,0,
06.29 17:03:32:455,38047,-0.49244,-0.54451,7.91935,0.00000,0.00000,0.00000,0.46078,0.01572,-0.54519,-6.61774,98.18346,0.01070,0.65375,-0.03787,-0.04356,0.75450,1,0,
06.29 17:03:32:465,38048,-0.41335,-0.47783,8.38036,0.00000,0.00000,0.00000,0.46377,0.01878,-0.54764,-7.08943,98.40094,0.09083,0.65213,-0.04100,-0.04629,0.75558,1,0,
06.29 17:03:32:474,38049,-0.39879,-0.59429,8.62738,0.00000,0.00000,0.00000,0.46571,0.02163,-0.54015,-7.62599,98.61016,0.15902,0.65052,-0.04441,-0.04952,0.75657,1,0,
06.29 17:03:32:486,38050,-0.12443,-0.72960,8.60510,0.00000,0.00000,0.00000,0.46671,0.02616,-0.54162,-8.17925,98.79533,0.22154,0.64904,-0.04788,-0.05289,0.75740,1,0,
06.29 17:03:32:495,38051,-0.02528,-0.92312,8.68381,0.00000,0.00000,0.00000,0.46567,0.03047,-0.53265,-8.70378,98.95582,0.28903,0.64772,-0.05122,-0.05605,0.75809,1,0,
06.29 17:03:32:504,38052,-0.09600,-1.18062,8.90000,0.00000,0.00000,0.00000,0.46866,0.03603,-0.53559,-9.15817,99.08976,0.35448,0.64659,-0.05415,-0.05875,0.75864,1,0,
06.29 17:03:32:515,38053,-0.08852,-1.29723,8.95226,0.00000,0.00000,0.00000,0.46814,0.03745,-0.53161,-9.51344,99.20029,0.40049,0.64566,-0.05640,-0.06089,0.75910,1,0,
06.29 17:03:32:525,38054,-0.01882,-1.24999,9.06306,0.00000,0.00000,0.00000,0.46861,0.04233,-0.52611,-9.78711,99.28529,0.40939,0.64496,-0.05795,-0.06270,0.75944,1,0,
06.29 17:03:32:535,38055,0.03728,-1.19596,9.44173,0.00000,0.00000,0.00000,0.46911,0.04487,-0.52809,-10.00758,99.33730,0.37428,0.64452,-0.05893,-0.06438,0.75959,1,0,
06.29 17:03:32:545,38056,0.03956,-1.09256,9.71982,0.00000,0.00000,0.00000,0.46812,0.04588,-0.52859,-10.18367,99.36593,0.30226,0.64428,-0.05943,-0.06597,0.75962,1,0,
06.29 17:03:32:555,38057,0.03036,-1.30103,10.04191,0.00000,0.00000,0.00000,0.46614,0.04787,-0.52860,-10.32771,99.37881,0.21261,0.64418,-0.05964,-0.06744,0.75956,1,0,
06.29 17:03:32:565,38058,-0.08832,-1.69381,10.32197,0.00000,0.00000,0.00000,0.46713,0.04886,-0.52809,-10.41867,99.37235,0.11106,0.64423,-0.05948,-0.06861,0.75942,1,0,
06.29 17:03:32:575,38059,-0.14171,-2.06097,10.60419,0.00000,0.00000,0.00000,0.46514,0.05184,-0.52760,-10.43004,99.34450,0.00268,0.64448,-0.05884,-0.06928,0.75920,1,0,
06.29 17:03:32:585,38060,0.04250,-2.46436,10.63878,0.00000,0.00000,0.00000,0.46319,0.05048,-0.53459,-10.36789,99.29925,-0.11660,0.64488,-0.05773,-0.06951,0.75892,1,0,
06.29 17:03:32:595,38061,0.21286,-2.68610,10.61703,0.00000,0.00000,0.00000,0.46217,0.05089,-0.53012,-10.23115,99.24368,-0.23787,0.64539,-0.05619,-0.06926,0.75863,1,0,
06.29 17:03:32:605,38062,-0.02957,-2.74870,10.76438,0.00000,0.00000,0.00000,0.45821,0.05040,-0.53115,-9.99763,99.18340,-0.37614,0.64598,-0.05399,-0.06847,0.75836,1,0,
06.29 17:03:32:615,38063,0.27857,-2.39097,10.82682,0.00000,0.00000,0.00000,0.45873,0.04649,-0.53563,-9.69374,99.11385,-0.53047,0.64666,-0.05130,-0.06729,0.75807,1,0,
06.29 17:03:32:625,38064,0.23717,-2.36524,11.24620,0.00000,0.00000,0.00000,0.45528,0.04605,-0.53915,-9.34108,99.03721,-0.67900,0.64740,-0.04837,-0.06577,0.75776,1,0,
06.29 17:03:32:635,38065,0.36837,-2.26523,11.34966,0.00000,0.00000,0.00000,0.45332,0.04215,-0.54416,-8.93141,98.95461,-0.80245,0.64818,-0.04528,-0.06372,0.75747,1,0,
06.29 17:03:32:644,38066,0.40789,-2.28889,11.28104,0.00000,0.00000,0.00000,0.45482,0.04070,-0.54614,-8.47570,98.85139,-0.88282,0.64907,-0.04223,-0.06113,0.75709,1,0,
06.29 17:03:32:655,38067,0.50270,-2.19099,11.15213,0.00000,0.00000,0.00000,0.45283,0.03469,-0.54568,-7.96101,98.72909,-0.92549,0.65008,-0.03909,-0.05792,0.75665,1,0,
06.29 17:03:32:664,38068,0.40725,-2.15051,11.12231,0.00000,0.00000,0.00000,0.45086,0.03074,-0.54820,-7.36558,98.57466,-0.93250,0.65129,-0.03574,-0.05398,0.75606,1,0,
06.29 17:03:32:675,38069,0.44122,-2.08902,11.16800,0.00000,0.00000,0.00000,0.45236,0.02579,-0.55019,-6.64830,98.37899,-0.91726,0.65279,-0.03185,-0.04911,0.75527,1,0,
06.29 17:03:32:685,38070,0.39422,-2.05525,11.07381,0.00000,0.00000,0.00000,0.45091,0.01891,-0.55620,-5.76617,98.14082,-0.88689,0.65458,-0.02711,-0.04306,0.75428,1,0,
06.29 17:03:32:695,38071,0.28522,-1.26791,11.08928,0.00000,0.00000,0.00000,0.45043,0.00948,-0.55923,-4.67737,97.87209,-0.86101,0.65657,-0.02114,-0.03570,0.75313,1,0,
06.29 17:03:32:705,38072,0.20334,-0.57511,10.79058,0.00000,0.00000,0.00000,0.45095,-0.00143,-0.56274,-3.41632,97.57821,-0.83912,0.65869,-0.01413,-0.02725,0.75179,1,0,
06.29 17:03:32:715,38073,0.15586,-0.12752,10.60668,0.00000,0.00000,0.00000,0.44651,-0.01284,-0.56730,-2.02786,97.24511,-0.83211,0.66099,-0.00625,-0.01808,0.75015,1,0,
06.29 17:03:32:725,38074,0.16981,0.12500,10.51508,0.00000,0.00000,0.00000,0.44704,-0.02722,-0.57282,-0.51541,96.86397,-0.83892,0.66351,0.00249,-0.00822,0.74812,1,0,
06.29 17:03:32:735,38075,0.23841,-0.00523,10.52333,0.00000,0.00000,0.00000,0.44707,-0.04262,-0.57686,1.13228,96.41975,-0.84860,0.66630,0.01211,0.00243,0.74558,1,0,
06.29 17:03:32:745,38076,0.13814,-0.04130,10.51459,0.00000,0.00000,0.00000,0.44611,-0.05550,-0.58239,2.96498,95.93429,-0.85846,0.66917,0.02288,0.01420,0.74262,1,0,
06.29 17:03:32:755,38077,0.39071,0.14112,10.63954,0.00000,0.00000,0.00000,0.44316,-0.07540,-0.58646,5.00348,95.42502,-0.87898,0.67194,0.03504,0.02713,0.73928,1,0,
06.29 17:03:32:765,38078,0.31469,0.22944,10.49516,0.00000,0.00000,0.00000,0.44420,-0.09572,-0.59449,7.25355,94.87595,-0.89343,0.67465,0.04852,0.04133,0.73538,1,0,
06.29 17:03:32:775,38079,0.16872,-0.00366,9.89806,0.00000,0.00000,0.00000,0.44274,-0.11612,-0.59856,9.75393,94.28551,-0.95242,0.67717,0.06389,0.05669,0.73085,1,0,
06.29 17:03:32:785,38080,0.30926,-0.10534,8.82598,0.00000,0.00000,0.00000,0.43536,-0.14792,-0.60769,12.56754,93.59645,-1.06854,0.67968,0.08168,0.07344,0.72524,1,0,
06.29 17:03:32:795,38081,0.12497,-0.23593,8.51622,0.00000,0.00000,0.00000,0.43341,-0.17582,-0.61179,15.67116,92.78467,-1.22635,0.68218,0.10170,0.09140,0.71828,1,0,
06.29 17:03:32:805,38082,-0.09056,0.27623,8.19243,0.00000,0.00000,0.00000,0.42798,-0.20772,-0.61592,19.00826,91.88294,-1.42524,0.68432,0.12363,0.11012,0.71014,1,0,
06.29 17:03:32:815,38083,0.11963,0.97768,7.62897,0.00000,0.00000,0.00000,0.42157,-0.24209,-0.62157,22.47204,90.92736,-1.65490,0.68584,0.14674,0.12894,0.70104,1,0,
06.29 17:03:32:825,38084,0.35221,1.90441,7.72349,0.00000,0.00000,0.00000,0.41664,-0.27850,-0.62473,25.96920,89.98215,-1.88161,0.68643,0.17019,0.14752,0.69144,1,0,
06.29 17:03:32:836,38085,0.41526,3.12423,7.95730,0.00000,0.00000,0.00000,0.41021,-0.31596,-0.62591,29.41195,89.13591,-2.07534,0.68574,0.19312,0.16564,0.68193,1,0,
06.29 17:03:32:845,38086,0.89851,4.33192,8.16371,0.00000,0.00000,0.00000,0.40376,-0.35449,-0.62361,32.71876,88.40421,-2.22123,0.68393,0.21485,0.18300,0.67275,1,0,
06.29 17:03:32:856,38087,1.50062,5.04718,8.23432,0.00000,0.00000,0.00000,0.40128,-0.38949,-0.62176,35.86066,87.75394,-2.27778,0.68144,0.23498,0.19971,0.66373,1,0,
06.29 17:03:32:865,38088,1.72634,5.01451,7.70435,0.00000,0.00000,0.00000,0.39630,-0.42358,-0.61645,38.92563,87.14325,-2.18674,0.67861,0.25376,0.21658,0.65436,1,0,
06.29 17:03:32:876,38089,0.73745,4.87389,6.58912,0.00000,0.00000,0.00000,0.39478,-0.45622,-0.60812,42.02115,86.55092,-1.94113,0.67540,0.27184,0.23423,0.64426,1,0,
06.29 17:03:32:885,38090,-0.40265,4.86931,5.86232,0.00000,0.00000,0.00000,0.39771,-0.48991,-0.59677,45.17741,85.96690,-1.64283,0.67161,0.28999,0.25217,0.63345,1,0,
06.29 17:03:32:895,38091,-0.48579,5.26213,5.34826,0.00000,0.00000,0.00000,0.40014,-0.51912,-0.58441,48.35494,85.35457,-1.42154,0.66720,0.30875,0.26929,0.62209,1,0,
06.29 17:03:32:905,38092,0.08626,6.12565,4.95550,0.00000,0.00000,0.00000,0.39711,-0.55135,-0.57211,51.43867,84.70656,-1.31994,0.66238,0.32767,0.28467,0.61061,1,0,
06.29 17:03:32:915,38093,0.13923,6.85730,4.93380,0.00000,0.00000,0.00000,0.39557,-0.58305,-0.56078,54.34320,84.07565,-1.33896,0.65712,0.34610,0.29805,0.59965,1,0,
06.29 17:03:32:926,38094,0.36439,8.06537,4.88927,0.00000,0.00000,0.00000,0.38858,-0.61226,-0.54999,57.02907,83.56545,-1.40255,0.65128,0.36311,0.31004,0.58980,1,0,
06.29 17:03:32:935,38095,0.40585,8.96811,4.78376,0.00000,0.00000,0.00000,0.38950,-0.63901,-0.53615,59.45606,83.20916,-1.48945,0.64500,0.37826,0.32079,0.58137,1,0,
06.29 17:03:32:945,38096,0.37851,9.19032,4.74518,0.00000,0.00000,0.00000,0.38648,-0.66222,-0.52480,61.67878,82.96894,-1.57302,0.63849,0.39180,0.33072,0.57397,1,0,
06.29 17:03:32:955,38097,0.77855,8.70701,4.71358,0.00000,0.00000,0.00000,0.38840,-0.68497,-0.51093,63.81559,82.78583,-1.61324,0.63186,0.40438,0.34049,0.56684,1,0,
06.29 17:03:32:964,38098,0.88853,8.66976,4.57988,0.00000,0.00000,0.00000,0.38684,-0.70776,-0.49610,65.93125,82.61440,-1.59411,0.62518,0.41641,0.35038,0.55945,1,0,
06.29 17:03:32:975,38099,0.48700,9.18063,3.82016,0.00000,0.00000,0.00000,0.38627,-0.72754,-0.48124,68.01880,82.45459,-1.49899,0.61858,0.42778,0.36044,0.55177,1,0,
06.29 17:03:32:985,38100,0.09751,9.76050,2.50429,0.00000,0.00000,0.00000,0.38818,-0.74134,-0.46535,70.04042,82.30589,-1.38184,0.61203,0.43856,0.37018,0.54410,1,0,
06.29 17:03:32:995,38101,-0.36959,9.88008,2.19545,0.00000,0.00000,0.00000,0.38661,-0.76266,-0.44851,71.94397,82.13252,-1.28253,0.60582,0.44879,0.37902,0.53658,1,0,
06.29 17:03:33:005,38102,0.24102,9.91949,2.01005,0.00000,0.00000,0.00000,0.39002,-0.77640,-0.43559,73.68948,81.97848,-1.22011,0.59984,0.45820,0.38687,0.52970,1,0,
06.29 17:03:33:015,38103,0.35872,10.12599,2.37280,0.00000,0.00000,0.00000,0.39292,-0.78969,-0.42019,75.23529,81.88237,-1.17699,0.59420,0.46638,0.39381,0.52376,1,0,
06.29 17:03:33:025,38104,0.32499,10.26481,2.16442,0.00000,0.00000,0.00000,0.39336,-0.80142,-0.40828,76.54501,81.94322,-1.14343,0.58868,0.47278,0.40020,0.51940,1,0,
06.29 17:03:33:035,38105,0.38771,10.33295,1.98069,0.00000,0.00000,0.00000,0.39380,-0.81263,-0.39687,77.62986,82.13679,-1.08911,0.58350,0.47741,0.40619,0.51635,1,0,
06.29 17:03:33:046,38106,-0.08503,10.23863,1.39942,0.00000,0.00000,0.00000,0.39822,-0.82029,-0.38790,78.51144,82.41505,-1.02859,0.57878,0.48062,0.41162,0.51437,1,0,
06.29 17:03:33:055,38107,-0.52616,10.20595,0.64533,0.00000,0.00000,0.00000,0.40163,-0.82452,-0.37595,79.24886,82.69833,-0.98067,0.57459,0.48310,0.41637,0.51294,1,0,
06.29 17:03:33:066,38108,-0.67712,10.00576,0.48602,0.00000,0.00000,0.00000,0.40556,-0.83020,-0.36648,79.86060,82.96015,-0.95522,0.57093,0.48509,0.42034,0.51191,1,0,
06.29 17:03:33:075,38109,-0.61889,10.22963,0.40919,0.00000,0.00000,0.00000,0.40701,-0.83331,-0.36051,80.36496,83.19836,-0.96184,0.56770,0.48674,0.42356,0.51126,1,0,
06.29 17:03:33:085,38110,-0.14044,10.22139,0.39801,0.00000,0.00000,0.00000,0.41047,-0.83437,-0.35700,80.74507,83.41790,-1.00275,0.56495,0.48799,0.42599,0.51111,1,0,
06.29 17:03:33:095,38111,-0.09978,10.42471,0.36631,0.00000,0.00000,0.00000,0.41144,-0.83797,-0.35153,80.98009,83.65338,-1.05395,0.56271,0.48849,0.42779,0.51160,1,0,
06.29 17:03:33:105,38112,-0.12938,11.02961,0.31028,0.00000,0.00000,0.00000,0.41390,-0.83902,-0.34853,81.06783,83.93057,-1.12479,0.56082,0.48820,0.42901,0.51293,1,0,
06.29 17:03:33:115,38113,0.25793,11.75459,0.47399,0.00000,0.00000,0.00000,0.41390,-0.84255,-0.34705,81.01288,84.22088,-1.21322,0.55941,0.48723,0.42956,0.51492,1,0,
06.29 17:03:33:125,38114,0.50296,12.28325,1.04642,0.00000,0.00000,0.00000,0.41487,-0.84310,-0.34455,80.80426,84.52339,-1.28867,0.55864,0.48541,0.42953,0.51749,1,0,
06.29 17:03:33:135,38115,0.64732,12.30142,1.77160,0.00000,0.00000,0.00000,0.41638,-0.83804,-0.34751,80.43601,84.86201,-1.33675,0.55848,0.48256,0.42905,0.52072,1,0,
06.29 17:03:33:144,38116,0.64103,12.08591,2.25830,0.00000,0.00000,0.00000,0.41935,-0.83605,-0.34648,79.91483,85.26422,-1.37110,0.55870,0.47867,0.42819,0.52477,1,0,
06.29 17:03:33:155,38117,0.57696,12.23685,1.75192,0.00000,0.00000,0.00000,0.42184,-0.82899,-0.34942,79.20573,85.77168,-1.40297,0.55919,0.47346,0.42687,0.53002,1,0,
06.29 17:03:33:165,38118,0.60904,12.32123,0.86176,0.00000,0.00000,0.00000,0.42731,-0.82745,-0.35087,78.15490,86.42989,-1.45086,0.56025,0.46610,0.42444,0.53733,1,0,
06.29 17:03:33:175,38119,0.36503,12.23279,0.24223,0.00000,0.00000,0.00000,0.42981,-0.81835,-0.35579,76.60285,87.24117,-1.52966,0.56235,0.45587,0.41997,0.54733,1,0,
06.29 17:03:33:185,38120,0.03773,11.29278,1.25239,0.00000,0.00000,0.00000,0.43234,-0.80717,-0.36469,74.58373,88.13877,-1.65690,0.56546,0.44328,0.41310,0.55957,1,0,
06.29 17:03:33:195,38121,0.47892,11.16489,1.99168,0.00000,0.00000,0.00000,0.43886,-0.79288,-0.37902,72.25780,89.10204,-1.82692,0.56892,0.42915,0.40440,0.57326,1,0,
06.29 17:03:33:205,38122,0.66308,11.55818,3.05141,0.00000,0.00000,0.00000,0.43991,-0.77766,-0.39041,69.69746,90.12268,-2.01284,0.57248,0.41376,0.39424,0.58792,1,0,
06.29 17:03:33:215,38123,0.67082,12.84458,3.81804,0.00000,0.00000,0.00000,0.44394,-0.75890,-0.40374,66.86143,91.23050,-2.17409,0.57617,0.39661,0.38258,0.60362,1,0,
06.29 17:03:33:225,38124,0.98098,13.06332,3.80184,0.00000,0.00000,0.00000,0.44699,-0.73708,-0.42007,63.73631,92.39264,-2.25450,0.58024,0.37744,0.36940,0.62000,1,0,
06.29 17:03:33:235,38125,1.05845,12.55041,3.99661,0.00000,0.00000,0.00000,0.45252,-0.71728,-0.43488,60.41705,93.58622,-2.21167,0.58447,0.35657,0.35525,0.63643,1,0,
06.29 17:03:33:246,38126,0.55695,11.58649,3.81272,0.00000,0.00000,0.00000,0.45953,-0.69205,-0.44668,56.96954,94.79533,-2.04204,0.58861,0.33431,0.34039,0.65261,1,0,
06.29 17:03:33:255,38127,0.11945,10.74037,3.62304,0.00000,0.00000,0.00000,0.46456,-0.66325,-0.46197,53.44112,95.93903,-1.80975,0.59268,0.31149,0.32450,0.66814,1,0,
06.29 17:03:33:265,38128,-0.00538,10.49735,3.32197,0.00000,0.00000,0.00000,0.46909,-0.63598,-0.47627,49.81769,96.99502,-1.57204,0.59663,0.28839,0.30716,0.68303,1,0,
06.29 17:03:33:275,38129,-0.01780,10.13097,3.31995,0.00000,0.00000,0.00000,0.47660,-0.60319,-0.49102,46.02058,97.94217,-1.32386,0.60076,0.26460,0.28788,0.69727,1,0,
06.29 17:03:33:285,38130,-0.03073,9.43643,3.19968,0.00000,0.00000,0.00000,0.47918,-0.57031,-0.51129,42.00429,98.78136,-1.05816,0.60512,0.23982,0.26646,0.71086,1,0,
06.29 17:03:33:295,38131,0.00008,8.27884,3.59627,0.00000,0.00000,0.00000,0.48367,-0.52917,-0.51957,37.81945,99.48994,-0.76945,0.60964,0.21426,0.24322,0.72338,1,0,
06.29 17:03:33:304,38132,0.55827,8.18682,3.63963,0.00000,0.00000,0.00000,0.48620,-0.48694,-0.53234,33.55061,100.05125,-0.44545,0.61424,0.18827,0.21879,0.73444,1,0,
06.29 17:03:33:315,38133,-0.21370,7.48324,3.63149,0.00000,0.00000,0.00000,0.49072,-0.44424,-0.54410,29.18193,100.50440,-0.12867,0.61857,0.16191,0.19300,0.74425,1,0,
06.29 17:03:33:326,38134,-0.78751,6.40887,4.08856,0.00000,0.00000,0.00000,0.49471,-0.39910,-0.55237,24.70480,100.86719,0.10844,0.62238,0.13555,0.16550,0.75291,1,0,
06.29 17:03:33:335,38135,-1.09247,4.89836,5.76083,0.00000,0.00000,0.00000,0.49474,-0.34948,-0.56115,20.17745,101.16713,0.22809,0.62540,0.10971,0.13657,0.76038,1,0,
06.29 17:03:33:345,38136,-0.07716,3.54928,6.80565,0.00000,0.00000,0.00000,0.49526,-0.29888,-0.56843,15.67393,101.44974,0.28765,0.62740,0.08439,0.10713,0.76667,1,0,
06.29 17:03:33:355,38137,0.04857,3.42384,7.81163,0.00000,0.00000,0.00000,0.49425,-0.24843,-0.56875,11.24459,101.74535,0.24374,0.62817,0.06018,0.07734,0.77188,1,0,
06.29 17:03:33:365,38138,0.65816,2.33227,7.84664,0.00000,0.00000,0.00000,0.49424,-0.20094,-0.57058,6.89343,102.07708,0.09466,0.62770,0.03716,0.04727,0.77613,1,0,
06.29 17:03:33:375,38139,0.59646,1.35570,6.67847,0.00000,0.00000,0.00000,0.49123,-0.15356,-0.56744,2.62405,102.43774,-0.01594,0.62618,0.01445,0.01776,0.77934,1,0,
06.29 17:03:33:385,38140,0.76472,-0.36017,6.00728,0.00000,0.00000,0.00000,0.48819,-0.10828,-0.55934,-1.55008,102.77531,-0.17774,0.62401,-0.00723,-0.01154,0.78130,1,0,
06.29 17:03:33:395,38141,0.58370,-3.09629,5.17146,0.00000,0.00000,0.00000,0.48764,-0.06347,-0.55222,-5.46164,103.07842,-0.34334,0.62138,-0.02729,-0.03917,0.78205,1,0,
06.29 17:03:33:405,38142,0.81582,-5.64690,4.18401,0.00000,0.00000,0.00000,0.48712,-0.02455,-0.55010,-8.76946,103.26373,-0.34191,0.61907,-0.04512,-0.06179,0.78160,1,0,
06.29 17:03:33:414,38143,-0.25218,-5.18969,5.19818,0.00000,0.00000,0.00000,0.48555,0.00412,-0.53557,-11.37785,103.25453,-0.40255,0.61799,-0.05879,-0.07988,0.77991,1,0,
06.29 17:03:33:426,38144,-0.41405,-3.56591,7.99188,0.00000,0.00000,0.00000,0.48101,0.03335,-0.52455,-13.62659,103.26731,-0.68218,0.61685,-0.06900,-0.09668,0.77807,1,0,
06.29 17:03:33:436,38145,-0.15851,-2.91281,9.76139,0.00000,0.00000,0.00000,0.47850,0.05573,-0.52002,-15.82847,103.37027,-1.08474,0.61507,-0.07801,-0.11384,0.77630,1,0,
06.29 17:03:33:445,38146,0.48287,-2.79759,9.96902,0.00000,0.00000,0.00000,0.47399,0.08057,-0.51399,-17.98206,103.44963,-1.55596,0.61344,-0.08627,-0.13098,0.77401,1,0,
06.29 17:03:33:455,38147,0.64957,-3.12470,9.11518,0.00000,0.00000,0.00000,0.46649,0.10784,-0.50549,-20.03261,103.38542,-1.99710,0.61272,-0.09433,-0.14710,0.77074,1,0,
06.29 17:03:33:466,38148,0.89055,-4.50263,7.99202,0.00000,0.00000,0.00000,0.45899,0.13013,-0.49701,-21.91421,103.11346,-2.41525,0.61341,-0.10194,-0.16170,0.76628,1,0,
06.29 17:03:33:475,38149,1.04843,-5.74542,6.91436,0.00000,0.00000,0.00000,0.45448,0.15244,-0.48950,-23.50333,102.68819,-2.83844,0.61530,-0.10825,-0.17415,0.76116,1,0,
06.29 17:03:33:486,38150,0.89718,-6.69522,6.51177,0.00000,0.00000,0.00000,0.44701,0.17232,-0.48601,-24.65557,102.16021,-3.27146,0.61824,-0.11238,-0.18356,0.75595,1,0,
06.29 17:03:33:495,38151,0.53195,-6.61485,6.22724,0.00000,0.00000,0.00000,0.43803,0.18812,-0.47806,-25.27405,101.58949,-3.70241,0.62194,-0.11379,-0.18936,0.75125,1,0,
06.29 17:03:33:505,38152,0.60322,-6.66377,6.03035,0.00000,0.00000,0.00000,0.43206,0.19806,-0.47658,-25.44906,100.97272,-4.09895,0.62632,-0.11314,-0.19201,0.74703,1,0,
06.29 17:03:33:516,38153,0.40620,-5.33939,6.40640,0.00000,0.00000,0.00000,0.42611,0.20607,-0.47809,-25.24627,100.33923,-4.47652,0.63111,-0.11060,-0.19211,0.74334,1,0,
06.29 17:03:33:525,38154,-0.38917,-3.28855,7.33177,0.00000,0.00000,0.00000,0.42067,0.20862,-0.48161,-24.84453,99.82585,-4.85743,0.63528,-0.10674,-0.19108,0.74061,1,0,
06.29 17:03:33:535,38155,0.40367,-3.39886,8.57530,0.00000,0.00000,0.00000,0.41324,0.21216,-0.48514,-24.43143,99.33999,-5.33104,0.63935,-0.10214,-0.19055,0.73789,1,0,
06.29 17:03:33:546,38156,0.51313,-3.49051,8.78723,0.00000,0.00000,0.00000,0.40732,0.21326,-0.49066,-23.98780,98.81889,-5.82327,0.64364,-0.09730,-0.18993,0.73497,1,0,
06.29 17:03:33:555,38157,1.28311,-4.51307,8.87292,0.00000,0.00000,0.00000,0.39740,0.21376,-0.49223,-23.49786,98.27696,-6.29424,0.64801,-0.09237,-0.18893,0.73202,1,0,
06.29 17:03:33:565,38158,0.68744,-4.57139,8.85587,0.00000,0.00000,0.00000,0.38900,0.21435,-0.49827,-22.93496,97.73190,-6.70529,0.65234,-0.08739,-0.18719,0.72923,1,0,
06.29 17:03:33:575,38159,0.58060,-4.55837,8.38042,0.00000,0.00000,0.00000,0.38506,0.21347,-0.50477,-22.27468,97.18263,-7.10758,0.65670,-0.08190,-0.18482,0.72655,1,0,
06.29 17:03:33:585,38160,0.19090,-4.26149,7.93379,0.00000,0.00000,0.00000,0.37468,0.21460,-0.51281,-21.50133,96.60704,-7.54054,0.66125,-0.07557,-0.18195,0.72383,1,0,
06.29 17:03:33:595,38161,0.56352,-4.24932,7.16734,0.00000,0.00000,0.00000,0.36727,0.21121,-0.51886,-20.51162,95.98112,-7.99750,0.66618,-0.06788,-0.17789,0.72107,1,0,
06.29 17:03:33:605,38162,0.81916,-5.03373,6.53880,0.00000,0.00000,0.00000,0.35988,0.20541,-0.52989,-19.14750,95.30421,-8.39159,0.67146,-0.05842,-0.17119,0.71862,1,0,
06.29 17:03:33:615,38163,1.33267,-4.35384,8.43635,0.00000,0.00000,0.00000,0.35151,0.19861,-0.54043,-17.39043,94.61125,-8.78579,0.67684,-0.04656,-0.16213,0.71655,1,0,
06.29 17:03:33:625,38164,0.74304,-2.69841,9.67745,0.00000,0.00000,0.00000,0.34761,0.18185,-0.55247,-15.37909,93.91727,-9.16037,0.68204,-0.03320,-0.15149,0.71468,1,0,
06.29 17:03:33:636,38165,1.40774,-3.22288,11.05535,0.00000,0.00000,0.00000,0.33876,0.16415,-0.56753,-13.53450,93.33184,-9.53732,0.68624,-0.02054,-0.14207,0.71307,1,0,
06.29 17:03:33:644,38166,1.39555,-1.67201,12.19975,0.00000,0.00000,0.00000,0.33287,0.14890,-0.58008,-11.79360,92.83129,-9.82520,0.68963,-0.00887,-0.13287,0.71181,1,0,
06.29 17:03:33:655,38167,2.24657,-0.88074,12.70505,0.00000,0.00000,0.00000,0.32500,0.13261,-0.59065,-10.48935,92.35526,-10.17634,0.69266,0.00068,-0.12684,0.71002,1,0,
06.29 17:03:33:665,38168,2.10457,-0.49913,12.64422,0.00000,0.00000,0.00000,0.31611,0.12325,-0.59872,-9.70080,91.99126,-10.53141,0.69489,0.00728,-0.12409,0.70830,1,0,
06.29 17:03:33:675,38169,2.48162,-0.84658,12.64826,0.00000,0.00000,0.00000,0.31068,0.11884,-0.60375,-9.39616,91.78643,-10.91339,0.69611,0.01130,-0.12451,0.70697,1,0,
06.29 17:03:33:685,38170,2.34210,-1.22315,12.55313,0.00000,0.00000,0.00000,0.30573,0.11839,-0.60678,-9.41474,91.68762,-11.25703,0.69669,0.01323,-0.12669,0.70597,1,0,
06.29 17:03:33:696,38171,3.55130,-1.13923,11.99776,0.00000,0.00000,0.00000,0.30176,0.12237,-0.60680,-9.58152,91.58566,-11.50939,0.69732,0.01369,-0.12923,0.70488,1,0,
06.29 17:03:33:705,38172,2.83507,-2.71743,11.98447,0.00000,0.00000,0.00000,0.29729,0.12585,-0.60633,-9.84659,91.56626,-11.56794,0.69746,0.01242,-0.13122,0.70439,1,0,
06.29 17:03:33:715,38173,3.36431,-3.73525,13.35920,0.00000,0.00000,0.00000,0.29827,0.12831,-0.60432,-10.09182,91.55595,-11.58226,0.69755,0.01100,-0.13281,0.70403,1,0,
06.29 17:03:33:726,38174,3.30285,-4.01350,13.81610,0.00000,0.00000,0.00000,0.29627,0.13126,-0.60233,-10.25951,91.58186,-11.44822,0.69742,0.00917,-0.13304,0.70415,1,0,
06.29 17:03:33:735,38175,3.56833,-4.64837,14.70684,0.00000,0.00000,0.00000,0.29777,0.12977,-0.60282,-10.29323,91.56786,-11.21066,0.69751,0.00747,-0.13183,0.70430,1,0,
06.29 17:03:33:745,38176,4.28138,-5.02512,15.42568,0.00000,0.00000,0.00000,0.30321,0.13073,-0.59979,-10.15717,91.45188,-10.84395,0.69823,0.00587,-0.12880,0.70417,1,0,
06.29 17:03:33:755,38177,4.95401,-4.46498,15.44805,0.00000,0.00000,0.00000,0.30818,0.12527,-0.60076,-9.87461,91.25536,-10.29151,0.69943,0.00393,-0.12376,0.70389,1,0,
06.29 17:03:33:765,38178,5.71382,-4.76285,16.49290,0.00000,0.00000,0.00000,0.31509,0.12564,-0.59324,-9.55201,91.03703,-9.50801,0.70077,0.00079,-0.11707,0.70372,1,0,
06.29 17:03:33:775,38179,6.41927,-4.48937,17.20553,0.00000,0.00000,0.00000,0.32945,0.12208,-0.58816,-9.24917,90.87239,-8.44770,0.70175,-0.00412,-0.10880,0.70405,1,0,
06.29 17:03:33:786,38180,6.66817,-4.49556,16.68477,0.00000,0.00000,0.00000,0.34331,0.11949,-0.58159,-8.94643,90.82899,-7.05786,0.70193,-0.01094,-0.09852,0.70532,1,0,
06.29 17:03:33:795,38181,6.27201,-3.87375,16.97976,0.00000,0.00000,0.00000,0.36511,0.11190,-0.57348,-8.61723,90.93031,-5.31305,0.70109,-0.01969,-0.08591,0.70760,1,0,
06.29 17:03:33:805,38182,5.62042,-3.30552,17.24364,0.00000,0.00000,0.00000,0.38837,0.10472,-0.56038,-8.26265,91.10440,-3.23599,0.69961,-0.03032,-0.07113,0.71033,1,0,
06.29 17:03:33:815,38183,5.03306,-2.57084,16.48832,0.00000,0.00000,0.00000,0.41559,0.09699,-0.54476,-7.87145,91.28233,-0.86102,0.69785,-0.04263,-0.05431,0.71291,1,0,
06.29 17:03:33:826,38184,5.17863,-1.83663,15.20577,0.00000,0.00000,0.00000,0.44675,0.08621,-0.52564,-7.46974,91.40453,1.75414,0.69611,-0.05642,-0.03595,0.71481,1,0,
06.29 17:03:33:835,38185,4.86973,-1.36445,13.58966,0.00000,0.00000,0.00000,0.47740,0.07583,-0.50154,-7.11310,91.44076,4.58778,0.69448,-0.07188,-0.01649,0.71572,1,0,
06.29 17:03:33:845,38186,3.62598,-1.43116,13.06648,0.00000,0.00000,0.00000,0.50803,0.06890,-0.47543,-6.83618,91.43095,7.63545,0.69259,-0.08912,0.00382,0.71579,1,0,
06.29 17:03:33:856,38187,3.37583,-1.00467,12.55054,0.00000,0.00000,0.00000,0.54360,0.06337,-0.44332,-6.66493,91.35845,10.85020,0.69044,-0.10796,0.02454,0.71487,1,0,
06.29 17:03:33:865,38188,3.33450,-1.52855,12.72867,0.00000,0.00000,0.00000,0.57220,0.05876,-0.40876,-6.52129,91.27445,14.19509,0.68769,-0.12766,0.04590,0.71321,1,0,
06.29 17:03:33:875,38189,3.61543,-1.81356,12.12979,0.00000,0.00000,0.00000,0.60328,0.05662,-0.37219,-6.37061,91.15543,17.71731,0.68441,-0.14824,0.06841,0.71058,1,0,
06.29 17:03:33:885,38190,3.83891,-2.12306,11.60695,0.00000,0.00000,0.00000,0.63283,0.04533,-0.32819,-6.20740,90.96517,21.43144,0.68071,-0.16968,0.09224,0.70663,1,0,
06.29 17:03:33:895,38191,4.04226,-1.74545,9.93656,0.00000,0.00000,0.00000,0.65990,0.04305,-0.28518,-6.01022,90.71307,25.34005,0.67646,-0.19178,0.11752,0.70129,1,0,
06.29 17:03:33:906,38192,3.95445,-1.20141,8.28872,0.00000,0.00000,0.00000,0.68594,0.03762,-0.23522,-5.83019,90.41409,29.39388,0.67146,-0.21447,0.14361,0.69464,1,0,
06.29 17:03:33:915,38193,3.04248,-0.69995,6.78868,0.00000,0.00000,0.00000,0.70601,0.03111,-0.18182,-5.68548,90.11839,33.57738,0.66530,-0.23774,0.17017,0.68695,1,0,
06.29 17:03:33:925,38194,1.79508,-0.54624,5.15472,0.00000,0.00000,0.00000,0.72656,0.02455,-0.12594,-5.52833,89.90770,37.86368,0.65756,-0.26125,0.19710,0.67861,1,0,
06.29 17:03:33:935,38195,0.86427,-0.81973,2.85377,0.00000,0.00000,0.00000,0.74063,0.02186,-0.06512,-5.35926,89.77717,42.20879,0.64836,-0.28473,0.22404,0.66960,1,0,
06.29 17:03:33:946,38196,-0.38840,-1.70748,2.16673,0.00000,0.00000,0.00000,0.75124,0.01469,-0.00533,-5.28437,89.56251,46.60192,0.63837,-0.30839,0.25065,0.65921,1,0,
06.29 17:03:33:955,38197,-1.85651,-1.63388,0.36988,0.00000,0.00000,0.00000,0.75689,0.01003,0.05343,-5.33676,89.21752,50.99171,0.62782,-0.33187,0.27660,0.64745,1,0,
06.29 17:03:33:965,38198,-5.02589,-2.90194,-0.34226,0.00000,0.00000,0.00000,0.75805,0.00680,0.11465,-5.48228,88.82466,55.30627,0.61647,-0.35469,0.30151,0.63503,1,0,
06.29 17:03:33:975,38199,-12.95176,-4.86721,-0.62241,0.00000,0.00000,0.00000,0.75129,0.00556,0.17481,-5.22020,88.90714,59.36771,0.60371,-0.37469,0.32542,0.62389,1,0,
