Time,Counter,ax,ay,az,gx,gy,gz,mx,my,mz,roll,yaw,pitch,q0,q1,q2,q3,Rest,Mag Disturbance,
06.29 16:43:56:224,51495,0.05539,-0.07262,9.80935,0.00000,0.00000,140777720119296.00000,0.34818,-0.09155,-0.64203,-0.33716,101.85790,-0.35036,0.63028,0.00052,-0.00421,0.77635,1,0,
06.29 16:43:56:225,51496,0.05000,-0.05597,9.79815,0.00000,0.00000,140777720119296.00000,0.34867,-0.09006,-0.64152,-0.33668,101.85816,-0.34879,0.63028,0.00051,-0.00420,0.77635,1,0,
06.29 16:43:56:225,51497,0.07776,-0.07926,9.78727,0.00000,0.00000,140777720119296.00000,0.34917,-0.09056,-0.64152,-0.33784,101.85877,-0.34912,0.63028,0.00051,-0.00421,0.77636,1,0,
06.29 16:43:56:237,51498,0.04074,-0.05551,9.88267,0.00000,0.00000,-0.00000,0.34866,-0.09109,-0.64003,-0.33768,101.85793,-0.34873,0.63028,0.00051,-0.00421,0.77635,1,0,
06.29 16:43:56:242,51499,0.07164,-0.02987,9.74300,0.00000,0.00000,-0.00000,0.34818,-0.09055,-0.64203,-0.33778,101.85872,-0.34934,0.63028,0.00051,-0.00421,0.77636,1,0,
06.29 16:43:56:252,51500,0.08823,-0.06535,9.86454,0.00000,0.00000,-0.00000,0.34768,-0.08907,-0.64153,-0.33938,101.85840,-0.34902,0.63028,0.00050,-0.00422,0.77636,1,0,
06.29 16:43:56:262,51501,0.07116,-0.07180,9.67603,0.00000,0.00000,-0.00000,0.34767,-0.09158,-0.64054,-0.33873,101.85853,-0.35011,0.63028,0.00051,-0.00422,0.77636,1,0,
06.29 16:43:56:272,51502,0.05361,-0.03880,9.87778,0.00000,0.00000,-0.00000,0.34866,-0.09208,-0.64054,-0.33594,101.85780,-0.34914,0.63029,0.00052,-0.00420,0.77635,1,0,
06.29 16:43:56:283,51503,0.06014,-0.04658,9.79974,0.00000,0.00000,-0.00000,0.34818,-0.08903,-0.64351,-0.33510,101.85717,-0.34911,0.63029,0.00052,-0.00419,0.77635,1,0,
06.29 16:43:56:293,51504,0.07320,-0.06828,9.79385,0.00000,0.00000,-0.00000,0.34371,-0.09055,-0.64306,-0.33477,101.85622,-0.34973,0.63030,0.00053,-0.00419,0.77634,1,0,
06.29 16:43:56:302,51505,0.07895,-0.05713,9.76989,0.00000,0.00000,-0.00000,0.34968,-0.09049,-0.64500,-0.33649,101.85638,-0.34933,0.63030,0.00052,-0.00420,0.77634,1,0,
06.29 16:43:56:312,51506,0.04698,-0.03621,9.80988,0.00000,0.00000,-0.00000,0.34669,-0.09256,-0.64205,-0.33795,101.85754,-0.34956,0.63029,0.00051,-0.00421,0.77635,1,0,
06.29 16:43:56:322,51507,0.06874,-0.04885,9.82306,0.00000,0.00000,-0.00000,0.34967,-0.09054,-0.64251,-0.33798,101.85662,-0.34985,0.63029,0.00051,-0.00421,0.77635,1,0,
06.29 16:43:56:331,51508,0.05701,-0.07326,9.77168,0.00000,0.00000,-0.00000,0.34718,-0.09255,-0.64204,-0.33907,101.85758,-0.35064,0.63029,0.00051,-0.00423,0.77635,1,0,
06.29 16:43:56:342,51509,0.06791,-0.05884,9.80115,0.00000,0.00000,-0.00000,0.34867,-0.09055,-0.64202,-0.33944,101.85873,-0.35061,0.63028,0.00051,-0.00423,0.77636,1,0,
06.29 16:43:56:352,51510,0.09722,-0.06651,9.77878,0.00000,0.00000,-0.00000,0.34769,-0.09150,-0.64452,-0.33874,101.85793,-0.35256,0.63028,0.00053,-0.00423,0.77635,1,0,
06.29 16:43:56:362,51511,0.09215,-0.04987,9.78532,0.00000,0.00000,-0.00000,0.34719,-0.09005,-0.64253,-0.34031,101.85799,-0.35273,0.63028,0.00052,-0.00425,0.77635,1,0,
06.29 16:43:56:372,51512,0.05972,-0.06256,9.82065,0.00000,0.00000,-0.00000,0.34718,-0.09305,-0.64204,-0.33947,101.85859,-0.35076,0.63028,0.00051,-0.00423,0.77636,1,0,
06.29 16:43:56:382,51513,0.04470,-0.05504,9.80430,0.00000,0.00000,-0.00000,0.34867,-0.08904,-0.64252,-0.33827,101.85838,-0.34887,0.63028,0.00050,-0.00421,0.77635,1,0,
06.29 16:43:56:392,51514,0.06608,-0.07032,9.79629,0.00000,0.00000,-0.00000,0.34868,-0.09003,-0.64302,-0.33791,101.85813,-0.34991,0.63028,0.00051,-0.00421,0.77635,1,0,
06.29 16:43:56:403,51515,0.07408,-0.04996,9.77941,0.00000,0.00000,-0.00000,0.34918,-0.09102,-0.64351,-0.33819,101.85808,-0.35208,0.63028,0.00053,-0.00423,0.77635,1,0,
06.29 16:43:56:413,51516,0.08003,-0.07103,9.80957,0.00000,0.00000,-0.00000,0.35016,-0.09054,-0.64251,-0.34003,101.85892,-0.35209,0.63028,0.00052,-0.00424,0.77636,1,0,
06.29 16:43:56:422,51517,0.08070,-0.06308,9.80911,0.00000,0.00000,-0.00000,0.34866,-0.08958,-0.64053,-0.34067,101.86006,-0.35204,0.63027,0.00051,-0.00424,0.77636,1,0,
06.29 16:43:56:433,51518,0.05792,-0.04196,9.77170,0.00000,0.00000,-0.00000,0.34866,-0.09158,-0.64053,-0.33978,101.86044,-0.35171,0.63027,0.00051,-0.00424,0.77637,1,0,
06.29 16:43:56:443,51519,0.08282,-0.05382,9.78978,0.00000,0.00000,-0.00000,0.34867,-0.09007,-0.64103,-0.34042,101.85980,-0.35274,0.63027,0.00052,-0.00425,0.77636,1,0,
06.29 16:43:56:452,51520,0.08588,-0.05052,9.79645,0.00000,0.00000,-0.00000,0.34818,-0.09105,-0.64203,-0.34097,101.85953,-0.35350,0.63027,0.00052,-0.00425,0.77636,1,0,
06.29 16:43:56:462,51521,0.06349,-0.04875,9.79199,0.00000,0.00000,-0.00000,0.34967,-0.09154,-0.64252,-0.34052,101.85970,-0.35380,0.63027,0.00052,-0.00425,0.77636,1,0,
06.29 16:43:56:473,51522,0.05368,-0.03437,9.80451,0.00000,0.00000,-0.00000,0.34767,-0.09010,-0.64004,-0.33966,101.85970,-0.35273,0.63027,0.00052,-0.00424,0.77636,1,0,
06.29 16:43:56:482,51523,0.04556,-0.06271,9.80358,0.00000,0.00000,-0.00000,0.34720,-0.09048,-0.64602,-0.33891,101.85973,-0.35341,0.63027,0.00053,-0.00424,0.77636,1,0,
06.29 16:43:56:492,51524,0.07134,-0.07649,9.78458,0.00000,0.00000,-0.00000,0.34521,-0.09051,-0.64454,-0.33814,101.85889,-0.35452,0.63028,0.00054,-0.00424,0.77636,1,0,
06.29 16:43:56:503,51525,0.08447,-0.06801,9.78081,0.00000,0.00000,-0.00000,0.34818,-0.08955,-0.64202,-0.33846,101.85850,-0.35458,0.63028,0.00054,-0.00424,0.77636,1,0,
06.29 16:43:56:512,51526,0.06210,-0.04751,9.82549,0.00000,0.00000,-0.00000,0.34967,-0.09151,-0.64401,-0.34006,101.85857,-0.35495,0.63028,0.00053,-0.00426,0.77636,1,0,
06.29 16:43:56:522,51527,0.05614,-0.05686,9.80797,0.00000,0.00000,-0.00000,0.34718,-0.09158,-0.64104,-0.33870,101.85742,-0.35522,0.63029,0.00054,-0.00425,0.77635,1,0,
06.29 16:43:56:531,51528,0.05959,-0.05289,9.79011,0.00000,0.00000,-0.00000,0.34719,-0.09003,-0.64353,-0.34010,101.85732,-0.35527,0.63029,0.00054,-0.00426,0.77635,1,0,
06.29 16:43:56:543,51529,0.06164,-0.04589,9.78384,0.00000,0.00000,-0.00000,0.34667,-0.09062,-0.63905,-0.33977,101.85767,-0.35637,0.63029,0.00055,-0.00426,0.77635,1,0,
06.29 16:43:56:552,51530,0.06152,-0.06707,9.81331,0.00000,0.00000,-0.00000,0.34670,-0.09051,-0.64453,-0.33788,101.85644,-0.35725,0.63029,0.00056,-0.00425,0.77634,1,0,
06.29 16:43:56:561,51531,0.05954,-0.05198,9.79605,0.00000,0.00000,-0.00000,0.35066,-0.08702,-0.64349,-0.33789,101.85670,-0.35685,0.63029,0.00056,-0.00425,0.77635,1,0,
06.29 16:43:56:572,51532,0.05510,-0.05190,9.80890,0.00000,0.00000,-0.00000,0.34619,-0.09305,-0.64255,-0.33847,101.85640,-0.35631,0.63030,0.00055,-0.00425,0.77634,1,0,
06.29 16:43:56:582,51533,0.05579,-0.06410,9.80103,0.00000,0.00000,-0.00000,0.34768,-0.08857,-0.64153,-0.33721,101.85546,-0.35568,0.63030,0.00055,-0.00424,0.77634,1,0,
06.29 16:43:56:593,51534,0.06566,-0.06118,9.79014,0.00000,0.00000,-0.00000,0.34668,-0.09109,-0.64055,-0.33708,101.85542,-0.35642,0.63030,0.00056,-0.00424,0.77634,1,0,
06.29 16:43:56:602,51535,0.06905,-0.07237,9.79722,0.00000,0.00000,-0.00000,0.34818,-0.09353,-0.64303,-0.33502,101.85478,-0.35614,0.63031,0.00057,-0.00423,0.77634,1,0,
06.29 16:43:56:612,51536,0.07222,-0.05952,9.81133,0.00000,0.00000,-0.00000,0.34769,-0.09250,-0.64453,-0.33356,101.85570,-0.35541,0.63030,0.00057,-0.00421,0.77634,1,0,
06.29 16:43:56:622,51537,0.05123,-0.06836,9.79960,0.00000,0.00000,-0.00000,0.34669,-0.09103,-0.64353,-0.33516,101.85666,-0.35599,0.63029,0.00057,-0.00423,0.77635,1,0,
06.29 16:43:56:632,51538,0.06988,-0.05532,9.78794,0.00000,0.00000,-0.00000,0.34818,-0.08904,-0.64302,-0.33498,101.85680,-0.35638,0.63029,0.00057,-0.00423,0.77635,1,0,
06.29 16:43:56:642,51539,0.08027,-0.03977,9.80921,0.00000,0.00000,-0.00000,0.34818,-0.09205,-0.64203,-0.33547,101.85668,-0.35634,0.63029,0.00057,-0.00423,0.77635,1,0,
06.29 16:43:56:652,51540,0.06547,-0.05013,9.80487,0.00000,0.00000,-0.00000,0.34719,-0.09104,-0.64303,-0.33664,101.85642,-0.35647,0.63029,0.00056,-0.00424,0.77634,1,0,
06.29 16:43:56:662,51541,0.06453,-0.04346,9.79543,0.00000,0.00000,-0.00000,0.34868,-0.09053,-0.64302,-0.33582,101.85658,-0.35678,0.63029,0.00057,-0.00424,0.77634,1,0,
06.29 16:43:56:672,51542,0.07401,-0.06229,9.80155,0.00000,0.00000,-0.00000,0.34966,-0.09056,-0.64152,-0.33741,101.85623,-0.35563,0.63030,0.00055,-0.00424,0.77634,1,0,
06.29 16:43:56:682,51543,0.05174,-0.06574,9.80167,0.00000,0.00000,-0.00000,0.34769,-0.09152,-0.64353,-0.33949,101.85625,-0.35493,0.63030,0.00054,-0.00425,0.77634,1,0,
06.29 16:43:56:692,51544,0.06437,-0.06159,9.76379,0.00000,0.00000,-0.00000,0.34719,-0.09153,-0.64353,-0.33845,101.85581,-0.35498,0.63030,0.00054,-0.00425,0.77634,1,0,
06.29 16:43:56:703,51545,0.04518,-0.05475,9.83215,0.00000,0.00000,-0.00000,0.34620,-0.08902,-0.64403,-0.33653,101.85569,-0.35487,0.63030,0.00055,-0.00423,0.77634,1,0,
06.29 16:43:56:712,51546,0.08526,-0.02911,9.75091,0.00000,0.00000,-0.00000,0.34669,-0.08953,-0.64353,-0.33859,101.85606,-0.35466,0.63030,0.00054,-0.00424,0.77634,1,0,
06.29 16:43:56:722,51547,0.08473,-0.07104,9.83834,0.00000,0.00000,-0.00000,0.34868,-0.08953,-0.64301,-0.33991,101.85565,-0.35469,0.63030,0.00053,-0.00425,0.77634,1,0,
06.29 16:43:56:731,51548,0.06389,-0.06940,9.75463,0.00000,0.00000,-0.00000,0.34867,-0.09157,-0.64103,-0.34173,101.85688,-0.35545,0.63029,0.00053,-0.00427,0.77635,1,0,
06.29 16:43:56:742,51549,0.08382,-0.04926,9.82189,0.00000,0.00000,-0.00000,0.34817,-0.08909,-0.64053,-0.33965,101.85674,-0.35477,0.63029,0.00054,-0.00425,0.77635,1,0,
06.29 16:43:56:752,51550,0.07040,-0.06048,9.77750,0.00000,0.00000,-0.00000,0.34767,-0.08859,-0.64053,-0.33919,101.85771,-0.35294,0.63029,0.00053,-0.00424,0.77635,1,0,
06.29 16:43:56:762,51551,0.03942,-0.05407,9.81603,0.00000,0.00000,-0.00000,0.34718,-0.09305,-0.64204,-0.33898,101.85745,-0.35378,0.63029,0.00053,-0.00424,0.77635,1,0,
06.29 16:43:56:772,51552,0.05830,-0.03704,9.79366,0.00000,0.00000,-0.00000,0.34668,-0.09058,-0.64104,-0.33949,101.85783,-0.35423,0.63029,0.00053,-0.00425,0.77635,1,0,
06.29 16:43:56:782,51553,0.06943,-0.05685,9.80144,0.00000,0.00000,-0.00000,0.34768,-0.08956,-0.64203,-0.33813,101.85715,-0.35360,0.63029,0.00054,-0.00424,0.77635,1,0,
06.29 16:43:56:792,51554,0.05687,-0.06017,9.79536,0.00000,0.00000,-0.00000,0.34719,-0.08903,-0.64352,-0.33863,101.85693,-0.35326,0.63029,0.00053,-0.00424,0.77635,1,0,
06.29 16:43:56:803,51555,0.06752,-0.06391,9.78806,0.00000,0.00000,-0.00000,0.34669,-0.09004,-0.64303,-0.33968,101.85715,-0.35312,0.63029,0.00052,-0.00424,0.77635,1,0,
06.29 16:43:56:812,51556,0.06341,-0.05093,9.79910,0.00000,0.00000,-0.00000,0.34768,-0.09007,-0.64153,-0.33974,101.85741,-0.35408,0.63029,0.00053,-0.00425,0.77635,1,0,
06.29 16:43:56:823,51557,0.06305,-0.06674,9.79171,0.00000,0.00000,-0.00000,0.34718,-0.09007,-0.64154,-0.33953,101.85699,-0.35454,0.63029,0.00053,-0.00425,0.77635,1,0,
06.29 16:43:56:831,51558,0.06532,-0.06064,9.78639,0.00000,0.00000,-0.00000,0.34768,-0.09055,-0.64203,-0.34017,101.85798,-0.35449,0.63028,0.00053,-0.00425,0.77635,1,0,
06.29 16:43:56:842,51559,0.06996,-0.04409,9.79305,0.00000,0.00000,-0.00000,0.34668,-0.09109,-0.64055,-0.33781,101.85730,-0.35456,0.63029,0.00054,-0.00424,0.77635,1,0,
06.29 16:43:56:852,51560,0.05498,-0.05123,9.80308,0.00000,0.00000,-0.00000,0.34621,-0.09250,-0.64504,-0.33785,101.85722,-0.35322,0.63029,0.00053,-0.00423,0.77635,1,0,
06.29 16:43:56:862,51561,0.04647,-0.05753,9.78980,0.00000,0.00000,-0.00000,0.34817,-0.09006,-0.64153,-0.33580,101.85760,-0.35227,0.63029,0.00054,-0.00421,0.77635,1,0,
06.29 16:43:56:872,51562,0.06652,-0.06058,9.80051,0.00000,0.00000,-0.00000,0.34768,-0.08857,-0.64153,-0.33369,101.85773,-0.35284,0.63029,0.00056,-0.00420,0.77635,1,0,
06.29 16:43:56:882,51563,0.07349,-0.06057,9.78191,0.00000,0.00000,-0.00000,0.34670,-0.09152,-0.64403,-0.33450,101.85800,-0.35311,0.63028,0.00055,-0.00421,0.77635,1,0,
06.29 16:43:56:892,51564,0.06348,-0.08031,9.80673,0.00000,0.00000,-0.00000,0.34619,-0.09158,-0.64105,-0.33221,101.85717,-0.35175,0.63029,0.00056,-0.00419,0.77635,1,0,
06.29 16:43:56:903,51565,0.05224,-0.06136,9.78546,0.00000,0.00000,-0.00000,0.34669,-0.09106,-0.64204,-0.33138,101.85748,-0.35164,0.63029,0.00056,-0.00418,0.77635,1,0,
06.29 16:43:56:912,51566,0.07018,-0.06868,9.80890,0.00000,0.00000,-0.00000,0.35017,-0.09152,-0.64351,-0.33171,101.85703,-0.35222,0.63029,0.00056,-0.00418,0.77635,1,0,
06.29 16:43:56:923,51567,0.06769,-0.04903,9.79435,0.00000,0.00000,-0.00000,0.34768,-0.09004,-0.64302,-0.33080,101.85720,-0.35162,0.63029,0.00056,-0.00418,0.77635,1,0,
06.29 16:43:56:932,51568,0.06921,-0.05420,9.78880,0.00000,0.00000,-0.00000,0.34819,-0.08999,-0.64501,-0.33153,101.85777,-0.35331,0.63029,0.00057,-0.00419,0.77635,1,0,
06.29 16:43:56:942,51569,0.05538,-0.06547,9.81941,0.00000,0.00000,-0.00000,0.34816,-0.09059,-0.64004,-0.33477,101.85873,-0.35235,0.63028,0.00055,-0.00421,0.77636,1,0,
06.29 16:43:56:952,51570,0.05478,-0.05615,9.79214,0.00000,0.00000,-0.00000,0.34867,-0.09155,-0.64203,-0.33386,101.85786,-0.35203,0.63029,0.00055,-0.00420,0.77635,1,0,
06.29 16:43:56:962,51571,0.04911,-0.06909,9.79679,0.00000,0.00000,-0.00000,0.34767,-0.09057,-0.64104,-0.33317,101.85831,-0.35266,0.63028,0.00056,-0.00420,0.77635,1,0,
06.29 16:43:56:972,51572,0.06081,-0.06885,9.78847,0.00000,0.00000,-0.00000,0.34719,-0.09252,-0.64354,-0.33065,101.85799,-0.35305,0.63028,0.00057,-0.00418,0.77635,1,0,
06.29 16:43:56:983,51573,0.07161,-0.05297,9.80363,0.00000,0.00000,-0.00000,0.34668,-0.08907,-0.64154,-0.33055,101.85822,-0.35361,0.63028,0.00058,-0.00418,0.77635,1,0,
06.29 16:43:56:992,51574,0.06251,-0.05345,9.78892,0.00000,0.00000,-0.00000,0.34768,-0.09254,-0.64254,-0.33272,101.85799,-0.35374,0.63028,0.00057,-0.00420,0.77635,1,0,
06.29 16:43:57:002,51575,0.04855,-0.05682,9.81214,0.00000,0.00000,-0.00000,0.34768,-0.09354,-0.64254,-0.33256,101.85867,-0.35312,0.63028,0.00056,-0.00420,0.77636,1,0,
06.29 16:43:57:013,51576,0.04297,-0.05686,9.78377,0.00000,0.00000,-0.00000,0.34966,-0.09107,-0.64102,-0.33144,101.85857,-0.35272,0.63028,0.00057,-0.00419,0.77636,1,0,
06.29 16:43:57:022,51577,0.07633,-0.05371,9.79795,0.00000,0.00000,-0.00000,0.34570,-0.08853,-0.64353,-0.33323,101.85907,-0.35313,0.63028,0.00056,-0.00420,0.77636,1,0,
06.29 16:43:57:033,51578,0.08073,-0.05754,9.79626,0.00000,0.00000,-0.00000,0.34719,-0.08852,-0.64402,-0.33446,101.85938,-0.35372,0.63027,0.00056,-0.00421,0.77636,1,0,
06.29 16:43:57:041,51579,0.06568,-0.06595,9.79552,0.00000,0.00000,-0.00000,0.34619,-0.09055,-0.64254,-0.33589,101.85968,-0.35270,0.63027,0.00054,-0.00422,0.77636,1,0,
06.29 16:43:57:052,51580,0.06609,-0.04245,9.78932,0.00000,0.00000,-0.00000,0.34917,-0.09006,-0.64152,-0.33605,101.86051,-0.35241,0.63027,0.00054,-0.00422,0.77637,1,0,
06.29 16:43:57:062,51581,0.07112,-0.05841,9.81136,0.00000,0.00000,-0.00000,0.34669,-0.09156,-0.64204,-0.33593,101.86118,-0.35164,0.63026,0.00053,-0.00421,0.77637,1,0,
06.29 16:43:57:072,51582,0.04524,-0.07795,9.79271,0.00000,0.00000,-0.00000,0.34569,-0.09307,-0.64156,-0.33659,101.86028,-0.35176,0.63027,0.00053,-0.00422,0.77637,1,0,
06.29 16:43:57:083,51583,0.06414,-0.06220,9.79843,0.00000,0.00000,-0.00000,0.34620,-0.09053,-0.64354,-0.33624,101.86050,-0.35308,0.63027,0.00054,-0.00422,0.77637,1,0,
06.29 16:43:57:092,51584,0.05861,-0.04224,9.78506,0.00000,0.00000,-0.00000,0.34519,-0.08957,-0.64155,-0.33469,101.86018,-0.35443,0.63027,0.00056,-0.00422,0.77636,1,0,
06.29 16:43:57:103,51585,0.07754,-0.04828,9.76913,0.00000,0.00000,-0.00000,0.34867,-0.09106,-0.64153,-0.33579,101.86077,-0.35469,0.63027,0.00056,-0.00423,0.77637,1,0,
06.29 16:43:57:112,51586,0.08293,-0.09916,9.86822,0.00000,0.00000,-0.00000,0.34619,-0.09208,-0.64105,-0.33743,101.86195,-0.35410,0.63026,0.00054,-0.00423,0.77637,1,0,
06.29 16:43:57:123,51587,0.06676,-0.04481,9.74362,0.00000,0.00000,-0.00000,0.34618,-0.09058,-0.64105,-0.33638,101.86169,-0.35467,0.63026,0.00055,-0.00423,0.77637,1,0,
06.29 16:43:57:133,51588,0.05350,-0.04450,9.84385,0.00000,0.00000,-0.00000,0.34668,-0.09208,-0.64105,-0.33905,101.86237,-0.35432,0.63025,0.00054,-0.00425,0.77638,1,0,
06.29 16:43:57:143,51589,0.04665,-0.04309,9.73055,0.00000,0.00000,-0.00000,0.34867,-0.08954,-0.64252,-0.33914,101.86282,-0.35569,0.63025,0.00054,-0.00425,0.77638,1,0,
06.29 16:43:57:153,51590,0.08713,-0.05014,9.86657,0.00000,0.00000,-0.00000,0.34769,-0.09002,-0.64402,-0.33837,101.86242,-0.35628,0.63025,0.00055,-0.00425,0.77638,1,0,
06.29 16:43:57:162,51591,0.08315,-0.03909,9.75008,0.00000,0.00000,-0.00000,0.34865,-0.09412,-0.63855,-0.33724,101.86283,-0.35618,0.63025,0.00056,-0.00424,0.77638,1,0,
06.29 16:43:57:172,51592,0.05736,-0.06967,9.78479,0.00000,0.00000,-0.00000,0.34769,-0.09001,-0.64452,-0.33553,101.86331,-0.35562,0.63025,0.00056,-0.00423,0.77638,1,0,
06.29 16:43:57:183,51593,0.07381,-0.05257,9.83391,0.00000,0.00000,-0.00000,0.34868,-0.09052,-0.64352,-0.33277,101.86210,-0.35550,0.63026,0.00058,-0.00421,0.77638,1,0,
06.29 16:43:57:193,51594,0.07379,-0.06874,9.77471,0.00000,0.00000,-0.00000,0.34867,-0.09205,-0.64203,-0.33405,101.86208,-0.35655,0.63026,0.00058,-0.00422,0.77638,1,0,
06.29 16:43:57:202,51595,0.05818,-0.05067,9.80432,0.00000,0.00000,-0.00000,0.34669,-0.09103,-0.64353,-0.33371,101.86313,-0.35464,0.63025,0.00057,-0.00421,0.77638,1,0,
06.29 16:43:57:212,51596,0.03940,-0.06693,9.82163,0.00000,0.00000,-0.00000,0.34866,-0.09158,-0.64053,-0.33460,101.86419,-0.35395,0.63024,0.00056,-0.00421,0.77639,1,0,
06.29 16:43:57:222,51597,0.06494,-0.06347,9.81588,0.00000,0.00000,-0.00000,0.34768,-0.09055,-0.64203,-0.33457,101.86544,-0.35464,0.63023,0.00056,-0.00422,0.77639,1,0,
06.29 16:43:57:233,51598,0.05911,-0.04651,9.76775,0.00000,0.00000,-0.00000,0.34719,-0.09052,-0.64403,-0.33377,101.86550,-0.35585,0.63023,0.00058,-0.00422,0.77639,1,0,
06.29 16:43:57:242,51599,0.07766,-0.06272,9.80640,0.00000,0.00000,-0.00000,0.34668,-0.08957,-0.64154,-0.33438,101.86546,-0.35659,0.63023,0.00058,-0.00423,0.77639,1,0,
06.29 16:43:57:253,51600,0.05505,-0.04326,9.78956,0.00000,0.00000,-0.00000,0.34718,-0.09006,-0.64203,-0.33309,101.86549,-0.35785,0.63023,0.00059,-0.00422,0.77639,1,0,
06.29 16:43:57:262,51601,0.05782,-0.06162,9.80713,0.00000,0.00000,-0.00000,0.34817,-0.09109,-0.64004,-0.33186,101.86583,-0.35910,0.63023,0.00061,-0.00422,0.77640,1,0,
06.29 16:43:57:273,51602,0.05984,-0.05122,9.79075,0.00000,0.00000,-0.00000,0.34719,-0.09055,-0.64253,-0.33113,101.86638,-0.35899,0.63023,0.00061,-0.00422,0.77640,1,0,
06.29 16:43:57:282,51603,0.06813,-0.07746,9.82111,0.00000,0.00000,-0.00000,0.34669,-0.08956,-0.64204,-0.32987,101.86663,-0.35844,0.63023,0.00061,-0.00421,0.77640,1,0,
06.29 16:43:57:292,51604,0.06938,-0.04400,9.78460,0.00000,0.00000,-0.00000,0.34718,-0.09206,-0.64154,-0.32879,101.86697,-0.35900,0.63022,0.00062,-0.00420,0.77640,1,0,
06.29 16:43:57:305,51605,0.05371,-0.06427,9.79168,0.00000,0.00000,-0.00000,0.34817,-0.09056,-0.64153,-0.33081,101.86808,-0.35962,0.63022,0.00062,-0.00422,0.77641,1,0,
06.29 16:43:57:312,51606,0.05408,-0.06877,9.82700,0.00000,0.00000,-0.00000,0.34917,-0.09204,-0.64252,-0.33066,101.86733,-0.35996,0.63022,0.00062,-0.00422,0.77640,1,0,
06.29 16:43:57:323,51607,0.06560,-0.05694,9.78706,0.00000,0.00000,-0.00000,0.34719,-0.08903,-0.64352,-0.33014,101.86722,-0.35973,0.63022,0.00062,-0.00422,0.77640,1,0,
06.29 16:43:57:333,51608,0.05149,-0.08340,9.78756,0.00000,0.00000,-0.00000,0.34817,-0.09257,-0.64104,-0.33029,101.86847,-0.35924,0.63021,0.00062,-0.00421,0.77641,1,0,
06.29 16:43:57:342,51609,0.04251,-0.05724,9.79381,0.00000,0.00000,-0.00000,0.34668,-0.09108,-0.64105,-0.33009,101.86883,-0.35885,0.63021,0.00062,-0.00421,0.77641,1,0,
06.29 16:43:57:352,51610,0.06756,-0.07946,9.81991,0.00000,0.00000,-0.00000,0.34618,-0.09309,-0.64056,-0.32905,101.86909,-0.36025,0.63021,0.00063,-0.00421,0.77641,1,0,
06.29 16:43:57:362,51611,0.05911,-0.06031,9.78754,0.00000,0.00000,-0.00000,0.34816,-0.09011,-0.63904,-0.33027,101.86996,-0.36148,0.63020,0.00063,-0.00423,0.77642,1,0,
06.29 16:43:57:376,51612,0.06424,-0.05334,9.80318,0.00000,0.00000,-0.00000,0.34768,-0.09106,-0.64154,-0.32918,101.87064,-0.36216,0.63020,0.00064,-0.00422,0.77642,1,0,
06.29 16:43:57:384,51613,0.07755,-0.05601,9.79629,0.00000,0.00000,-0.00000,0.34569,-0.09156,-0.64205,-0.32649,101.86962,-0.36141,0.63021,0.00065,-0.00420,0.77642,1,0,
06.29 16:43:57:393,51614,0.09468,-0.04887,9.78596,0.00000,0.00000,-0.00000,0.34719,-0.08953,-0.64352,-0.32611,101.86930,-0.36225,0.63021,0.00066,-0.00420,0.77641,1,0,
06.29 16:43:57:404,51615,0.06598,-0.05785,9.80453,0.00000,0.00000,-0.00000,0.34916,-0.09158,-0.64053,-0.32466,101.86829,-0.36133,0.63021,0.00066,-0.00419,0.77641,1,0,
06.29 16:43:57:412,51616,0.05012,-0.05260,9.80546,0.00000,0.00000,-0.00000,0.34717,-0.09060,-0.64004,-0.32586,101.86935,-0.36034,0.63021,0.00065,-0.00419,0.77642,1,0,
06.29 16:43:57:424,51617,0.05834,-0.07743,9.80322,0.00000,0.00000,-0.00000,0.34966,-0.09157,-0.64102,-0.32657,101.86986,-0.36028,0.63020,0.00065,-0.00419,0.77642,1,0,
06.29 16:43:57:433,51618,0.07662,-0.04705,9.76894,0.00000,0.00000,-0.00000,0.34916,-0.09108,-0.64053,-0.32603,101.86961,-0.36076,0.63021,0.00065,-0.00419,0.77642,1,0,
06.29 16:43:57:443,51619,0.05836,-0.06974,9.81512,0.00000,0.00000,-0.00000,0.34817,-0.09206,-0.64153,-0.32677,101.87054,-0.35956,0.63020,0.00064,-0.00419,0.77642,1,0,
06.29 16:43:57:453,51620,0.05732,-0.05501,9.80785,0.00000,0.00000,-0.00000,0.34670,-0.09002,-0.64403,-0.32749,101.87096,-0.35950,0.63020,0.00063,-0.00420,0.77642,1,0,
06.29 16:43:57:462,51621,0.03362,-0.07256,9.79490,0.00000,0.00000,-0.00000,0.34768,-0.09156,-0.64154,-0.32672,101.87151,-0.35987,0.63019,0.00064,-0.00419,0.77643,1,0,
06.29 16:43:57:472,51622,0.07441,-0.04854,9.78963,0.00000,0.00000,-0.00000,0.34619,-0.09307,-0.64155,-0.32785,101.87122,-0.36065,0.63019,0.00064,-0.00420,0.77643,1,0,
06.29 16:43:57:482,51623,0.05738,-0.05637,9.78990,0.00000,0.00000,-0.00000,0.34867,-0.09406,-0.64154,-0.32554,101.87094,-0.36076,0.63020,0.00065,-0.00419,0.77642,1,0,
06.29 16:43:57:493,51624,0.06190,-0.04273,9.79240,0.00000,0.00000,-0.00000,0.34818,-0.09003,-0.64302,-0.32247,101.87018,-0.36086,0.63020,0.00067,-0.00417,0.77642,1,0,
06.29 16:43:57:503,51625,0.04962,-0.04756,9.80010,0.00000,0.00000,-0.00000,0.34619,-0.09205,-0.64255,-0.32354,101.87059,-0.36002,0.63020,0.00066,-0.00417,0.77642,1,0,
06.29 16:43:57:512,51626,0.05154,-0.06557,9.81298,0.00000,0.00000,-0.00000,0.34519,-0.09059,-0.64056,-0.32348,101.87070,-0.36033,0.63020,0.00066,-0.00417,0.77642,1,0,
06.29 16:43:57:522,51627,0.05946,-0.06318,9.78806,0.00000,0.00000,-0.00000,0.34619,-0.09258,-0.64105,-0.32441,101.87151,-0.36067,0.63019,0.00066,-0.00418,0.77643,1,0,
06.29 16:43:57:533,51628,0.06031,-0.06280,9.77855,0.00000,0.00000,-0.00000,0.34867,-0.09007,-0.64103,-0.32555,101.87170,-0.36041,0.63019,0.00065,-0.00419,0.77643,1,0,
06.29 16:43:57:543,51629,0.05521,-0.05050,9.79729,0.00000,0.00000,-0.00000,0.34817,-0.09156,-0.64153,-0.32557,101.87180,-0.36007,0.63019,0.00065,-0.00419,0.77643,1,0,
06.29 16:43:57:553,51630,0.07103,-0.05490,9.78305,0.00000,0.00000,-0.00000,0.34967,-0.09154,-0.64252,-0.32435,101.87119,-0.36053,0.63019,0.00066,-0.00418,0.77643,1,0,
06.29 16:43:57:563,51631,0.08106,-0.06030,9.77857,0.00000,0.00000,-0.00000,0.34767,-0.09058,-0.64054,-0.32512,101.87128,-0.35990,0.63019,0.00065,-0.00418,0.77643,1,0,
06.29 16:43:57:572,51632,0.06770,-0.07160,9.77955,0.00000,0.00000,-0.00000,0.34769,-0.09101,-0.64402,-0.32338,101.87114,-0.35941,0.63020,0.00066,-0.00417,0.77643,1,0,
06.29 16:43:57:582,51633,0.05942,-0.05310,9.82955,0.00000,0.00000,-0.00000,0.34867,-0.09004,-0.64252,-0.32320,101.87228,-0.35957,0.63019,0.00066,-0.00417,0.77643,1,0,
06.29 16:43:57:593,51634,0.05649,-0.04135,9.79447,0.00000,0.00000,-0.00000,0.34968,-0.09250,-0.64451,-0.32509,101.87219,-0.35952,0.63019,0.00065,-0.00418,0.77643,1,0,
06.29 16:43:57:603,51635,0.05673,-0.05474,9.82089,0.00000,0.00000,-0.00000,0.34669,-0.09106,-0.64204,-0.32420,101.87217,-0.35959,0.63019,0.00065,-0.00417,0.77643,1,0,
06.29 16:43:57:612,51636,0.06115,-0.04653,9.79352,0.00000,0.00000,-0.00000,0.34868,-0.08953,-0.64301,-0.32324,101.87213,-0.35870,0.63019,0.00065,-0.00416,0.77643,1,0,
06.29 16:43:57:622,51637,0.06058,-0.03952,9.80833,0.00000,0.00000,-0.00000,0.34768,-0.09054,-0.64253,-0.32574,101.87252,-0.35839,0.63019,0.00064,-0.00418,0.77643,1,0,
06.29 16:43:57:633,51638,0.07233,-0.05824,9.76393,0.00000,0.00000,-0.00000,0.34917,-0.09256,-0.64153,-0.32437,101.87206,-0.35969,0.63019,0.00065,-0.00418,0.77643,1,0,
06.29 16:43:57:642,51639,0.05916,-0.06351,9.82640,0.00000,0.00000,-0.00000,0.34868,-0.09050,-0.64451,-0.32425,101.87236,-0.36003,0.63019,0.00066,-0.00418,0.77643,1,0,
06.29 16:43:57:652,51640,0.05115,-0.06819,9.79834,0.00000,0.00000,-0.00000,0.34569,-0.09408,-0.64106,-0.32400,101.87186,-0.36042,0.63019,0.00066,-0.00418,0.77643,1,0,
06.29 16:43:57:662,51641,0.07463,-0.06688,9.78224,0.00000,0.00000,-0.00000,0.34818,-0.09203,-0.64303,-0.32205,101.87129,-0.36023,0.63019,0.00067,-0.00416,0.77643,1,0,
06.29 16:43:57:673,51642,0.04175,-0.06511,9.81744,0.00000,0.00000,-0.00000,0.34768,-0.08957,-0.64153,-0.32145,101.87183,-0.35925,0.63019,0.00067,-0.00415,0.77643,1,0,
06.29 16:43:57:681,51643,0.04584,-0.06488,9.80513,0.00000,0.00000,-0.00000,0.34867,-0.09055,-0.64202,-0.32051,101.87148,-0.35982,0.63019,0.00068,-0.00415,0.77643,1,0,
06.29 16:43:57:692,51644,0.06087,-0.05823,9.80320,0.00000,0.00000,-0.00000,0.34670,-0.09051,-0.64453,-0.31958,101.87133,-0.35997,0.63019,0.00068,-0.00414,0.77643,1,0,
06.29 16:43:57:703,51645,0.05349,-0.06851,9.79040,0.00000,0.00000,-0.00000,0.34667,-0.09261,-0.63956,-0.31936,101.87045,-0.35964,0.63020,0.00068,-0.00414,0.77642,1,0,
06.29 16:43:57:713,51646,0.06156,-0.06098,9.82590,0.00000,0.00000,-0.00000,0.34818,-0.08905,-0.64252,-0.31708,101.87010,-0.35986,0.63020,0.00069,-0.00413,0.77642,1,0,
06.29 16:43:57:722,51647,0.07387,-0.07223,9.77905,0.00000,0.00000,-0.00000,0.34819,-0.09201,-0.64402,-0.31606,101.86987,-0.36069,0.63020,0.00071,-0.00413,0.77642,1,0,
06.29 16:43:57:733,51648,0.09403,-0.03907,9.78041,0.00000,0.00000,-0.00000,0.34817,-0.09156,-0.64153,-0.31739,101.87101,-0.36074,0.63020,0.00070,-0.00413,0.77642,1,0,
06.29 16:43:57:741,51649,0.07664,-0.06851,9.81434,0.00000,0.00000,-0.00000,0.34719,-0.09052,-0.64403,-0.31548,101.87186,-0.36049,0.63019,0.00071,-0.00412,0.77643,1,0,
06.29 16:43:57:752,51650,0.07095,-0.04293,9.79123,0.00000,0.00000,-0.00000,0.34867,-0.09006,-0.64152,-0.31443,101.87193,-0.36084,0.63019,0.00072,-0.00411,0.77643,1,0,
06.29 16:43:57:763,51651,0.06442,-0.05760,9.78270,0.00000,0.00000,-0.00000,0.34818,-0.09054,-0.64252,-0.31401,101.87240,-0.36124,0.63019,0.00072,-0.00411,0.77643,1,0,
06.29 16:43:57:772,51652,0.06203,-0.06616,9.79681,0.00000,0.00000,-0.00000,0.34619,-0.09057,-0.64155,-0.31390,101.87180,-0.36061,0.63019,0.00072,-0.00411,0.77643,1,0,
06.29 16:43:57:782,51653,0.05718,-0.05946,9.79924,0.00000,0.00000,-0.00000,0.35016,-0.09157,-0.64102,-0.31604,101.87302,-0.35969,0.63018,0.00070,-0.00412,0.77644,1,0,
06.29 16:43:57:793,51654,0.06364,-0.05709,9.79829,0.00000,0.00000,-0.00000,0.34620,-0.09053,-0.64354,-0.31770,101.87376,-0.35937,0.63018,0.00069,-0.00413,0.77644,1,0,
06.29 16:43:57:802,51655,0.05287,-0.05852,9.80597,0.00000,0.00000,-0.00000,0.34917,-0.09003,-0.64301,-0.31675,101.87451,-0.35976,0.63017,0.00070,-0.00412,0.77644,1,0,
06.29 16:43:57:813,51656,0.04887,-0.06386,9.80883,0.00000,0.00000,-0.00000,0.34818,-0.09104,-0.64253,-0.31678,101.87492,-0.35878,0.63017,0.00069,-0.00412,0.77645,1,0,
06.29 16:43:57:823,51657,0.06890,-0.06944,9.79745,0.00000,0.00000,-0.00000,0.34818,-0.08803,-0.64351,-0.31617,101.87481,-0.35883,0.63017,0.00069,-0.00412,0.77645,1,0,
06.29 16:43:57:833,51658,0.05739,-0.05142,9.81121,0.00000,0.00000,-0.00000,0.34867,-0.08856,-0.64152,-0.31479,101.87434,-0.35876,0.63017,0.00070,-0.00411,0.77644,1,0,
06.29 16:43:57:841,51659,0.06965,-0.07237,9.80740,0.00000,0.00000,-0.00000,0.34620,-0.08954,-0.64303,-0.31653,101.87394,-0.35916,0.63018,0.00069,-0.00412,0.77644,1,0,
06.29 16:43:57:852,51660,0.06895,-0.05719,9.79502,0.00000,0.00000,-0.00000,0.34718,-0.09205,-0.64204,-0.31687,101.87408,-0.35973,0.63018,0.00069,-0.00413,0.77644,1,0,
06.29 16:43:57:862,51661,0.04703,-0.06207,9.79850,0.00000,0.00000,-0.00000,0.34867,-0.08954,-0.64252,-0.31536,101.87373,-0.35962,0.63018,0.00070,-0.00411,0.77644,1,0,
06.29 16:43:57:872,51662,0.07849,-0.05510,9.80597,0.00000,0.00000,-0.00000,0.34669,-0.08954,-0.64303,-0.31538,101.87400,-0.35966,0.63018,0.00070,-0.00411,0.77644,1,0,
06.29 16:43:57:882,51663,0.06852,-0.06448,9.79533,0.00000,0.00000,-0.00000,0.34620,-0.09154,-0.64304,-0.31327,101.87368,-0.35910,0.63018,0.00071,-0.00410,0.77644,1,0,
06.29 16:43:57:892,51664,0.07242,-0.06996,9.78773,0.00000,0.00000,-0.00000,0.34719,-0.08753,-0.64352,-0.31234,101.87314,-0.36008,0.63018,0.00072,-0.00410,0.77644,1,0,
06.29 16:43:57:903,51665,0.07002,-0.06802,9.81562,0.00000,0.00000,-0.00000,0.34669,-0.08954,-0.64303,-0.31488,101.87280,-0.36024,0.63018,0.00071,-0.00411,0.77643,1,0,
06.29 16:43:57:912,51666,0.05266,-0.06131,9.78661,0.00000,0.00000,-0.00000,0.34868,-0.09202,-0.64352,-0.31512,101.87346,-0.35938,0.63018,0.00070,-0.00411,0.77644,1,0,
06.29 16:43:57:922,51667,0.04815,-0.06154,9.79548,0.00000,0.00000,-0.00000,0.34669,-0.09005,-0.64253,-0.31506,101.87462,-0.35923,0.63017,0.00070,-0.00411,0.77644,1,0,
06.29 16:43:57:932,51668,0.04642,-0.04117,9.78653,0.00000,0.00000,-0.00000,0.35016,-0.08806,-0.64150,-0.31592,101.87532,-0.35895,0.63017,0.00069,-0.00411,0.77645,1,0,
06.29 16:43:57:942,51669,0.05947,-0.05172,9.80730,0.00000,0.00000,-0.00000,0.34819,-0.09301,-0.64403,-0.31505,101.87482,-0.35811,0.63017,0.00069,-0.00410,0.77645,1,0,
06.29 16:43:57:952,51670,0.08782,-0.05470,9.79993,0.00000,0.00000,-0.00000,0.34917,-0.09105,-0.64202,-0.31491,101.87495,-0.35842,0.63017,0.00070,-0.00410,0.77645,1,0,
06.29 16:43:57:962,51671,0.05436,-0.05708,9.80163,0.00000,0.00000,-0.00000,0.35016,-0.09155,-0.64201,-0.31567,101.87572,-0.35903,0.63016,0.00070,-0.00411,0.77645,1,0,
06.29 16:43:57:972,51672,0.06700,-0.08277,9.80041,0.00000,0.00000,-0.00000,0.34669,-0.08853,-0.64353,-0.31251,101.87566,-0.35888,0.63016,0.00071,-0.00409,0.77645,1,0,
06.29 16:43:57:982,51673,0.05821,-0.05905,9.78611,0.00000,0.00000,-0.00000,0.34917,-0.09256,-0.64153,-0.31207,101.87563,-0.35930,0.63016,0.00072,-0.00409,0.77645,1,0,
06.29 16:43:57:992,51674,0.07203,-0.05654,9.80084,0.00000,0.00000,-0.00000,0.34719,-0.08954,-0.64303,-0.31267,101.87630,-0.35857,0.63016,0.00071,-0.00409,0.77645,1,0,
06.29 16:43:58:002,51675,0.04737,-0.06690,9.79982,0.00000,0.00000,-0.00000,0.34816,-0.09212,-0.63855,-0.31303,101.87512,-0.35896,0.63017,0.00071,-0.00410,0.77645,1,0,
06.29 16:43:58:012,51676,0.07359,-0.05195,9.79824,0.00000,0.00000,-0.00000,0.34918,-0.09102,-0.64351,-0.31272,101.87436,-0.35816,0.63017,0.00071,-0.00409,0.77644,1,0,
06.29 16:43:58:022,51677,0.08744,-0.06329,9.77735,0.00000,0.00000,-0.00000,0.34918,-0.08952,-0.64351,-0.31367,101.87456,-0.35846,0.63017,0.00070,-0.00410,0.77644,1,0,
06.29 16:43:58:032,51678,0.06687,-0.06088,9.81922,0.00000,0.00000,-0.00000,0.35016,-0.09204,-0.64251,-0.31495,101.87458,-0.35826,0.63017,0.00070,-0.00410,0.77644,1,0,
06.29 16:43:58:043,51679,0.06785,-0.06019,9.80198,0.00000,0.00000,-0.00000,0.34918,-0.09152,-0.64352,-0.31481,101.87470,-0.35790,0.63017,0.00069,-0.00410,0.77645,1,0,
06.29 16:43:58:052,51680,0.05064,-0.07276,9.79953,0.00000,0.00000,-0.00000,0.34817,-0.08809,-0.64053,-0.31413,101.87423,-0.35784,0.63017,0.00070,-0.00410,0.77644,1,0,
06.29 16:43:58:062,51681,0.03842,-0.06129,9.80158,0.00000,0.00000,-0.00000,0.34819,-0.08899,-0.64501,-0.31227,101.87370,-0.35752,0.63018,0.00071,-0.00408,0.77644,1,0,
06.29 16:43:58:072,51682,0.04635,-0.06006,9.79982,0.00000,0.00000,-0.00000,0.34620,-0.08903,-0.64353,-0.31076,101.87303,-0.35779,0.63018,0.00072,-0.00407,0.77644,1,0,
06.29 16:43:58:082,51683,0.07041,-0.05431,9.81333,0.00000,0.00000,-0.00000,0.34769,-0.09203,-0.64303,-0.31041,101.87295,-0.35912,0.63018,0.00073,-0.00408,0.77644,1,0,
06.29 16:43:58:093,51684,0.07561,-0.06476,9.79385,0.00000,0.00000,-0.00000,0.34718,-0.09205,-0.64204,-0.31088,101.87341,-0.35955,0.63018,0.00073,-0.00408,0.77644,1,0,
06.29 16:43:58:102,51685,0.07370,-0.03701,9.79333,0.00000,0.00000,-0.00000,0.34570,-0.09103,-0.64354,-0.31228,101.87366,-0.35966,0.63018,0.00072,-0.00409,0.77644,1,0,
06.29 16:43:58:113,51686,0.04218,-0.08029,9.78522,0.00000,0.00000,-0.00000,0.34670,-0.09049,-0.64552,-0.31171,101.87332,-0.36102,0.63018,0.00073,-0.00410,0.77644,1,0,
06.29 16:43:58:122,51687,0.07817,-0.07426,9.81431,0.00000,0.00000,-0.00000,0.34569,-0.08957,-0.64155,-0.31312,101.87376,-0.36047,0.63018,0.00072,-0.00410,0.77644,1,0,
06.29 16:43:58:131,51688,0.04683,-0.06592,9.78363,0.00000,0.00000,-0.00000,0.34916,-0.08906,-0.64152,-0.31356,101.87434,-0.36015,0.63017,0.00072,-0.00411,0.77644,1,0,
06.29 16:43:58:143,51689,0.06907,-0.03584,9.80308,0.00000,0.00000,-0.00000,0.34670,-0.08952,-0.64403,-0.31219,101.87273,-0.36006,0.63018,0.00072,-0.00410,0.77643,1,0,
06.29 16:43:58:152,51690,0.07824,-0.06210,9.80620,0.00000,0.00000,-0.00000,0.34867,-0.09054,-0.64252,-0.31326,101.87265,-0.35950,0.63018,0.00071,-0.00410,0.77643,1,0,
06.29 16:43:58:162,51691,0.08001,-0.04923,9.78949,0.00000,0.00000,-0.00000,0.34868,-0.09252,-0.64352,-0.31279,101.87326,-0.35936,0.63018,0.00071,-0.00410,0.77644,1,0,
06.29 16:43:58:173,51692,0.07660,-0.07075,9.79099,0.00000,0.00000,-0.00000,0.34917,-0.09154,-0.64252,-0.31037,101.87271,-0.35922,0.63018,0.00073,-0.00408,0.77643,1,0,
06.29 16:43:58:182,51693,0.07682,-0.06176,9.79204,0.00000,0.00000,-0.00000,0.34967,-0.09202,-0.64351,-0.30947,101.87222,-0.35825,0.63019,0.00073,-0.00407,0.77643,1,0,
06.29 16:43:58:192,51694,0.06575,-0.06400,9.80549,0.00000,0.00000,-0.00000,0.34918,-0.09152,-0.64352,-0.30833,101.87106,-0.35738,0.63020,0.00073,-0.00405,0.77643,1,0,
06.29 16:43:58:203,51695,0.06643,-0.04967,9.79834,0.00000,0.00000,-0.00000,0.34867,-0.09154,-0.64252,-0.30736,101.87122,-0.35774,0.63019,0.00073,-0.00405,0.77643,1,0,
06.29 16:43:58:213,51696,0.05792,-0.06619,9.80566,0.00000,0.00000,-0.00000,0.34767,-0.09057,-0.64104,-0.30948,101.87238,-0.35729,0.63019,0.00072,-0.00406,0.77643,1,0,
06.29 16:43:58:222,51697,0.03748,-0.04567,9.79903,0.00000,0.00000,-0.00000,0.34868,-0.09053,-0.64302,-0.31007,101.87178,-0.35780,0.63019,0.00072,-0.00407,0.77643,1,0,
06.29 16:43:58:233,51698,0.05962,-0.06686,9.79433,0.00000,0.00000,-0.00000,0.34867,-0.09206,-0.64153,-0.30977,101.87091,-0.35792,0.63020,0.00072,-0.00407,0.77642,1,0,
06.29 16:43:58:243,51699,0.06132,-0.07226,9.80482,0.00000,0.00000,-0.00000,0.34916,-0.09158,-0.64053,-0.31071,101.87096,-0.35861,0.63020,0.00072,-0.00408,0.77642,1,0,
06.29 16:43:58:252,51700,0.06723,-0.05900,9.79145,0.00000,0.00000,-0.00000,0.34817,-0.09057,-0.64103,-0.30928,101.87156,-0.35935,0.63019,0.00073,-0.00407,0.77643,1,0,
06.29 16:43:58:263,51701,0.07485,-0.05670,9.78994,0.00000,0.00000,-0.00000,0.34669,-0.09055,-0.64254,-0.31136,101.87217,-0.35807,0.63019,0.00071,-0.00408,0.77643,1,0,
06.29 16:43:58:273,51702,0.06288,-0.04760,9.81553,0.00000,0.00000,-0.00000,0.34570,-0.09055,-0.64254,-0.31264,101.87309,-0.35723,0.63018,0.00070,-0.00408,0.77644,1,0,
06.29 16:43:58:283,51703,0.04223,-0.02627,9.78105,0.00000,0.00000,-0.00000,0.34817,-0.09107,-0.64103,-0.31149,101.87233,-0.35640,0.63019,0.00070,-0.00407,0.77643,1,0,
06.29 16:43:58:292,51704,0.07311,-0.04217,9.79385,0.00000,0.00000,-0.00000,0.34718,-0.08805,-0.64252,-0.31030,101.87260,-0.35630,0.63019,0.00071,-0.00406,0.77643,1,0,
06.29 16:43:58:303,51705,0.07971,-0.04669,9.80411,0.00000,0.00000,-0.00000,0.34717,-0.08959,-0.64054,-0.31052,101.87321,-0.35552,0.63018,0.00070,-0.00406,0.77644,1,0,
06.29 16:43:58:312,51706,0.05877,-0.06601,9.79428,0.00000,0.00000,-0.00000,0.34917,-0.09006,-0.64152,-0.31079,101.87312,-0.35501,0.63018,0.00070,-0.00406,0.77644,1,0,
06.29 16:43:58:322,51707,0.05482,-0.03742,9.79989,0.00000,0.00000,-0.00000,0.34867,-0.09107,-0.64103,-0.31028,101.87357,-0.35601,0.63018,0.00071,-0.00406,0.77644,1,0,
06.29 16:43:58:333,51708,0.06530,-0.06671,9.78057,0.00000,0.00000,-0.00000,0.35017,-0.08953,-0.64300,-0.31084,101.87453,-0.35625,0.63017,0.00070,-0.00407,0.77644,1,0,
06.29 16:43:58:342,51709,0.08843,-0.06803,9.80680,0.00000,0.00000,-0.00000,0.34817,-0.09208,-0.64054,-0.31108,101.87484,-0.35591,0.63017,0.00070,-0.00407,0.77645,1,0,
06.29 16:43:58:352,51710,0.05841,-0.05017,9.80511,0.00000,0.00000,-0.00000,0.34569,-0.09006,-0.64205,-0.31265,101.87562,-0.35588,0.63016,0.00069,-0.00408,0.77645,1,0,
06.29 16:43:58:363,51711,0.05686,-0.05873,9.79314,0.00000,0.00000,-0.00000,0.34918,-0.08800,-0.64450,-0.31041,101.87514,-0.35524,0.63017,0.00070,-0.00406,0.77645,1,0,
06.29 16:43:58:372,51712,0.04347,-0.06911,9.80763,0.00000,0.00000,-0.00000,0.34768,-0.09155,-0.64203,-0.31132,101.87517,-0.35481,0.63017,0.00069,-0.00406,0.77645,1,0,
06.29 16:43:58:383,51713,0.06204,-0.03948,9.80251,0.00000,0.00000,-0.00000,0.34867,-0.09005,-0.64202,-0.31104,101.87496,-0.35526,0.63017,0.00070,-0.00406,0.77645,1,0,
06.29 16:43:58:392,51714,0.07225,-0.05450,9.82371,0.00000,0.00000,-0.00000,0.34719,-0.09055,-0.64253,-0.31069,101.87447,-0.35513,0.63017,0.00070,-0.00406,0.77644,1,0,
06.29 16:43:58:403,51715,0.03218,-0.06236,9.78751,0.00000,0.00000,-0.00000,0.35015,-0.09259,-0.64003,-0.31210,101.87400,-0.35528,0.63018,0.00069,-0.00407,0.77644,1,0,
06.29 16:43:58:413,51716,0.05059,-0.05676,9.79648,0.00000,0.00000,-0.00000,0.34769,-0.09102,-0.64353,-0.31220,101.87337,-0.35468,0.63018,0.00069,-0.00407,0.77644,1,0,
06.29 16:43:58:421,51717,0.07462,-0.06738,9.79767,0.00000,0.00000,-0.00000,0.34819,-0.09201,-0.64402,-0.31263,101.87360,-0.35409,0.63018,0.00068,-0.00407,0.77644,1,0,
06.29 16:43:58:433,51718,0.05574,-0.05140,9.80687,0.00000,0.00000,-0.00000,0.34569,-0.08906,-0.64204,-0.31315,101.87384,-0.35338,0.63018,0.00067,-0.00407,0.77644,1,0,
06.29 16:43:58:444,51719,0.06135,-0.04112,9.78801,0.00000,0.00000,-0.00000,0.34868,-0.08953,-0.64301,-0.31379,101.87411,-0.35373,0.63017,0.00067,-0.00407,0.77644,1,0,
06.29 16:43:58:452,51720,0.06262,-0.04135,9.80406,0.00000,0.00000,-0.00000,0.34768,-0.08955,-0.64253,-0.31245,101.87357,-0.35374,0.63018,0.00068,-0.00406,0.77644,1,0,
06.29 16:43:58:463,51721,0.08007,-0.05583,9.79686,0.00000,0.00000,-0.00000,0.34967,-0.09102,-0.64351,-0.31222,101.87381,-0.35409,0.63018,0.00068,-0.00406,0.77644,1,0,
06.29 16:43:58:472,51722,0.07999,-0.06111,9.80320,0.00000,0.00000,-0.00000,0.34668,-0.09107,-0.64154,-0.31055,101.87297,-0.35422,0.63018,0.00069,-0.00405,0.77644,1,0,
06.29 16:43:58:483,51723,0.06616,-0.05951,9.78954,0.00000,0.00000,-0.00000,0.35017,-0.09201,-0.64401,-0.30971,101.87389,-0.35268,0.63018,0.00069,-0.00404,0.77644,1,0,
06.29 16:43:58:493,51724,0.06027,-0.04153,9.79142,0.00000,0.00000,-0.00000,0.34521,-0.09001,-0.64454,-0.31033,101.87431,-0.35437,0.63017,0.00069,-0.00405,0.77644,1,0,
06.29 16:43:58:502,51725,0.06513,-0.05177,9.79548,0.00000,0.00000,-0.00000,0.34915,-0.08710,-0.63952,-0.30955,101.87488,-0.35426,0.63017,0.00070,-0.00405,0.77645,1,0,
06.29 16:43:58:513,51726,0.04653,-0.05910,9.79879,0.00000,0.00000,-0.00000,0.34868,-0.09002,-0.64351,-0.31024,101.87507,-0.35436,0.63017,0.00069,-0.00405,0.77645,1,0,
06.29 16:43:58:522,51727,0.05144,-0.07282,9.80182,0.00000,0.00000,-0.00000,0.34967,-0.09103,-0.64301,-0.31163,101.87445,-0.35446,0.63017,0.00069,-0.00406,0.77644,1,0,
06.29 16:43:58:532,51728,0.04195,-0.05706,9.78916,0.00000,0.00000,-0.00000,0.34769,-0.09052,-0.64352,-0.31188,101.87520,-0.35511,0.63017,0.00069,-0.00407,0.77645,1,0,
06.29 16:43:58:542,51729,0.07601,-0.07380,9.79185,0.00000,0.00000,-0.00000,0.34768,-0.09104,-0.64253,-0.31291,101.87546,-0.35582,0.63017,0.00069,-0.00408,0.77645,1,0,
06.29 16:43:58:553,51730,0.04802,-0.03720,9.80186,0.00000,0.00000,-0.00000,0.34817,-0.09006,-0.64153,-0.31270,101.87527,-0.35550,0.63017,0.00069,-0.00407,0.77645,1,0,
06.29 16:43:58:562,51731,0.06389,-0.03730,9.78649,0.00000,0.00000,-0.00000,0.34867,-0.09056,-0.64153,-0.31204,101.87490,-0.35554,0.63017,0.00069,-0.00407,0.77645,1,0,
06.29 16:43:58:572,51732,0.08240,-0.06463,9.81195,0.00000,0.00000,-0.00000,0.34719,-0.09155,-0.64254,-0.31429,101.87526,-0.35529,0.63017,0.00068,-0.00408,0.77645,1,0,
06.29 16:43:58:582,51733,0.06141,-0.06608,9.78842,0.00000,0.00000,-0.00000,0.34720,-0.08900,-0.64502,-0.31515,101.87593,-0.35589,0.63016,0.00068,-0.00409,0.77645,1,0,
06.29 16:43:58:593,51734,0.05290,-0.05386,9.80871,0.00000,0.00000,-0.00000,0.34917,-0.09203,-0.64302,-0.31461,101.87524,-0.35583,0.63017,0.00068,-0.00409,0.77645,1,0,
06.29 16:43:58:602,51735,0.05765,-0.06755,9.79152,0.00000,0.00000,-0.00000,0.34917,-0.09203,-0.64302,-0.31573,101.87523,-0.35554,0.63017,0.00067,-0.00409,0.77645,1,0,
06.29 16:43:58:613,51736,0.05746,-0.06069,9.81043,0.00000,0.00000,-0.00000,0.34719,-0.09202,-0.64353,-0.31602,101.87585,-0.35460,0.63016,0.00066,-0.00409,0.77645,1,0,
06.29 16:43:58:621,51737,0.06445,-0.07024,9.79495,0.00000,0.00000,-0.00000,0.34668,-0.09007,-0.64154,-0.31650,101.87653,-0.35429,0.63016,0.00066,-0.00409,0.77646,1,0,
06.29 16:43:58:632,51738,0.05563,-0.06439,9.80287,0.00000,0.00000,-0.00000,0.34919,-0.09098,-0.64550,-0.31969,101.87843,-0.35373,0.63015,0.00064,-0.00411,0.77647,1,0,
06.29 16:43:58:641,51739,0.04790,-0.06292,9.78382,0.00000,0.00000,-0.00000,0.34817,-0.09209,-0.64004,-0.31853,101.87736,-0.35440,0.63015,0.00065,-0.00411,0.77646,1,0,
06.29 16:43:58:652,51740,0.06371,-0.05733,9.79352,0.00000,0.00000,-0.00000,0.34718,-0.09108,-0.64104,-0.31693,101.87711,-0.35493,0.63015,0.00066,-0.00410,0.77646,1,0,
06.29 16:43:58:663,51741,0.06729,-0.05334,9.81202,0.00000,0.00000,-0.00000,0.34669,-0.09103,-0.64353,-0.31678,101.87746,-0.35406,0.63015,0.00066,-0.00409,0.77646,1,0,
06.29 16:43:58:672,51742,0.06871,-0.05158,9.80735,0.00000,0.00000,-0.00000,0.34768,-0.09104,-0.64253,-0.31548,101.87826,-0.35294,0.63015,0.00066,-0.00408,0.77647,1,0,
06.29 16:43:58:683,51743,0.06452,-0.07168,9.78756,0.00000,0.00000,-0.00000,0.34818,-0.08952,-0.64352,-0.31671,101.87898,-0.35371,0.63014,0.00066,-0.00409,0.77647,1,0,
06.29 16:43:58:693,51744,0.06045,-0.04108,9.79121,0.00000,0.00000,-0.00000,0.34868,-0.09201,-0.64402,-0.31673,101.87862,-0.35351,0.63014,0.00065,-0.00409,0.77647,1,0,
06.29 16:43:58:703,51745,0.07672,-0.04619,9.80620,0.00000,0.00000,-0.00000,0.34718,-0.09006,-0.64203,-0.31512,101.87819,-0.35451,0.63015,0.00067,-0.00408,0.77646,1,0,
06.29 16:43:58:712,51746,0.04952,-0.06267,9.79352,0.00000,0.00000,-0.00000,0.34867,-0.08855,-0.64202,-0.31475,101.87743,-0.35485,0.63015,0.00067,-0.00408,0.77646,1,0,
06.29 16:43:58:722,51747,0.05345,-0.04473,9.79147,0.00000,0.00000,-0.00000,0.34619,-0.09055,-0.64254,-0.31314,101.87713,-0.35382,0.63015,0.00068,-0.00407,0.77646,1,0,
06.29 16:43:58:732,51748,0.05717,-0.08580,9.78370,0.00000,0.00000,-0.00000,0.34768,-0.09206,-0.64154,-0.31354,101.87744,-0.35427,0.63015,0.00068,-0.00407,0.77646,1,0,
06.29 16:43:58:742,51749,0.06597,-0.05111,9.80749,0.00000,0.00000,-0.00000,0.34768,-0.09155,-0.64203,-0.31404,101.87677,-0.35434,0.63016,0.00067,-0.00408,0.77646,1,0,
06.29 16:43:58:753,51750,0.06159,-0.05329,9.80234,0.00000,0.00000,-0.00000,0.34720,-0.08851,-0.64452,-0.31119,101.87683,-0.35449,0.63016,0.00069,-0.00406,0.77646,1,0,
06.29 16:43:58:762,51751,0.04514,-0.06437,9.78751,0.00000,0.00000,-0.00000,0.34818,-0.08955,-0.64202,-0.31146,101.87726,-0.35374,0.63015,0.00068,-0.00406,0.77646,1,0,
06.29 16:43:58:772,51752,0.06037,-0.06070,9.80487,0.00000,0.00000,-0.00000,0.34669,-0.09156,-0.64204,-0.31112,101.87768,-0.35299,0.63015,0.00068,-0.00405,0.77646,1,0,
06.29 16:43:58:783,51753,0.07117,-0.07694,9.77955,0.00000,0.00000,-0.00000,0.34917,-0.08854,-0.64251,-0.31148,101.87681,-0.35464,0.63016,0.00069,-0.00406,0.77646,1,0,
06.29 16:43:58:794,51754,0.06713,-0.04713,9.81772,0.00000,0.00000,-0.00000,0.34768,-0.09005,-0.64253,-0.31262,101.87726,-0.35600,0.63015,0.00069,-0.00408,0.77646,1,0,
06.29 16:43:58:801,51755,0.06309,-0.05330,9.78842,0.00000,0.00000,-0.00000,0.35016,-0.08955,-0.64201,-0.31367,101.87890,-0.35513,0.63014,0.00068,-0.00408,0.77647,1,0,
06.29 16:43:58:812,51756,0.05507,-0.07466,9.79719,0.00000,0.00000,-0.00000,0.34917,-0.09006,-0.64152,-0.31272,101.87872,-0.35414,0.63014,0.00068,-0.00407,0.77647,1,0,
06.29 16:43:58:822,51757,0.05596,-0.06067,9.78947,0.00000,0.00000,-0.00000,0.34916,-0.08758,-0.64052,-0.31293,101.87756,-0.35404,0.63015,0.00068,-0.00407,0.77646,1,0,
06.29 16:43:58:832,51758,0.07433,-0.06143,9.80873,0.00000,0.00000,-0.00000,0.34818,-0.09054,-0.64252,-0.31167,101.87653,-0.35588,0.63016,0.00070,-0.00407,0.77646,1,0,
06.29 16:43:58:842,51759,0.08963,-0.06339,9.79006,0.00000,0.00000,-0.00000,0.34868,-0.08951,-0.64401,-0.31190,101.87633,-0.35645,0.63016,0.00070,-0.00407,0.77645,1,0,
06.29 16:43:58:853,51760,0.05144,-0.05554,9.80029,0.00000,0.00000,-0.00000,0.34917,-0.09255,-0.64203,-0.31334,101.87778,-0.35388,0.63015,0.00067,-0.00407,0.77646,1,0,
06.29 16:43:58:862,51761,0.04722,-0.04906,9.76663,0.00000,0.00000,-0.00000,0.34768,-0.09204,-0.64253,-0.31206,101.87712,-0.35320,0.63015,0.00068,-0.00406,0.77646,1,0,
06.29 16:43:58:871,51762,0.07348,-0.05560,9.80563,0.00000,0.00000,-0.00000,0.35016,-0.09057,-0.64102,-0.31049,101.87608,-0.35464,0.63016,0.00070,-0.00405,0.77645,1,0,
06.29 16:43:58:883,51763,0.06779,-0.04140,9.80401,0.00000,0.00000,-0.00000,0.34868,-0.09401,-0.64403,-0.30984,101.87687,-0.35561,0.63016,0.00071,-0.00405,0.77646,1,0,
06.29 16:43:58:893,51764,0.03537,-0.06317,9.80477,0.00000,0.00000,-0.00000,0.34569,-0.09056,-0.64205,-0.30997,101.87796,-0.35363,0.63015,0.00069,-0.00404,0.77646,1,0,
06.29 16:43:58:902,51765,0.02657,-0.07384,9.79467,0.00000,0.00000,-0.00000,0.35017,-0.09051,-0.64400,-0.30972,101.87878,-0.35281,0.63014,0.00069,-0.00404,0.77647,1,0,
06.29 16:43:58:912,51766,0.07091,-0.05072,9.80525,0.00000,0.00000,-0.00000,0.34867,-0.09106,-0.64153,-0.31174,101.87877,-0.35307,0.63014,0.00068,-0.00405,0.77647,1,0,
06.29 16:43:58:923,51767,0.08606,-0.04767,9.80044,0.00000,0.00000,-0.00000,0.34619,-0.08957,-0.64154,-0.31192,101.87819,-0.35319,0.63015,0.00068,-0.00406,0.77646,1,0,
06.29 16:43:58:937,51768,0.06601,-0.05081,9.79800,0.00000,0.00000,-0.00000,0.34719,-0.09003,-0.64353,-0.31137,101.87811,-0.35307,0.63015,0.00068,-0.00405,0.77646,1,0,
06.29 16:43:58:943,51769,0.06628,-0.06720,9.77881,0.00000,0.00000,-0.00000,0.35066,-0.08905,-0.64200,-0.31105,101.87805,-0.35239,0.63015,0.00068,-0.00405,0.77646,1,0,
06.29 16:43:58:956,51770,0.05808,-0.05089,9.78382,0.00000,0.00000,-0.00000,0.34668,-0.09159,-0.64055,-0.31161,101.87885,-0.35137,0.63014,0.00067,-0.00404,0.77647,1,0,
06.29 16:43:58:966,51771,0.05966,-0.06346,9.79321,0.00000,0.00000,-0.00000,0.34768,-0.09104,-0.64253,-0.31240,101.87856,-0.35148,0.63014,0.00066,-0.00405,0.77647,1,0,
06.29 16:43:58:974,51772,0.06372,-0.06173,9.79939,0.00000,0.00000,-0.00000,0.34918,-0.09101,-0.64401,-0.31206,101.87895,-0.35166,0.63014,0.00067,-0.00405,0.77647,1,0,
06.29 16:43:58:986,51773,0.05742,-0.03096,9.79302,0.00000,0.00000,-0.00000,0.34868,-0.09053,-0.64302,-0.31244,101.87937,-0.35083,0.63014,0.00066,-0.00405,0.77647,1,0,
06.29 16:43:58:994,51774,0.05433,-0.06089,9.79431,0.00000,0.00000,-0.00000,0.34620,-0.09104,-0.64304,-0.31179,101.87901,-0.35027,0.63014,0.00066,-0.00404,0.77647,1,0,
06.29 16:43:59:004,51775,0.07010,-0.05064,9.78620,0.00000,0.00000,-0.00000,0.34669,-0.09155,-0.64254,-0.31169,101.87826,-0.35231,0.63015,0.00067,-0.00405,0.77647,1,0,
06.29 16:43:59:013,51776,0.07760,-0.06498,9.79579,0.00000,0.00000,-0.00000,0.34719,-0.08704,-0.64302,-0.31345,101.87925,-0.35184,0.63014,0.00066,-0.00406,0.77647,1,0,
06.29 16:43:59:023,51777,0.03164,-0.06338,9.79424,0.00000,0.00000,-0.00000,0.34767,-0.09061,-0.63954,-0.31470,101.88000,-0.35090,0.63014,0.00065,-0.00406,0.77647,1,0,
06.29 16:43:59:033,51778,0.05764,-0.08129,9.79493,0.00000,0.00000,-0.00000,0.34719,-0.09302,-0.64354,-0.31384,101.87954,-0.35139,0.63014,0.00066,-0.00406,0.77647,1,0,
06.29 16:43:59:042,51779,0.04678,-0.06499,9.78663,0.00000,0.00000,-0.00000,0.34719,-0.09105,-0.64253,-0.31321,101.87849,-0.35322,0.63015,0.00067,-0.00406,0.77647,1,0,
06.29 16:43:59:053,51780,0.07783,-0.07260,9.82273,0.00000,0.00000,-0.00000,0.34718,-0.09056,-0.64204,-0.31307,101.87831,-0.35499,0.63015,0.00068,-0.00407,0.77647,1,0,
06.29 16:43:59:062,51781,0.06376,-0.04055,9.78882,0.00000,0.00000,-0.00000,0.34618,-0.09059,-0.64055,-0.31348,101.87920,-0.35484,0.63014,0.00068,-0.00408,0.77647,1,0,
06.29 16:43:59:073,51782,0.06227,-0.08089,9.79090,0.00000,0.00000,-0.00000,0.34868,-0.09151,-0.64402,-0.31205,101.87898,-0.35393,0.63014,0.00068,-0.00406,0.77647,1,0,
06.29 16:43:59:083,51783,0.05366,-0.04914,9.78007,0.00000,0.00000,-0.00000,0.34768,-0.08955,-0.64253,-0.31313,101.87939,-0.35555,0.63014,0.00069,-0.00408,0.77647,1,0,
06.29 16:43:59:093,51784,0.06706,-0.08517,9.81498,0.00000,0.00000,-0.00000,0.34965,-0.09110,-0.63953,-0.31353,101.87915,-0.35723,0.63014,0.00070,-0.00409,0.77647,1,0,
06.29 16:43:59:103,51785,0.08012,-0.04671,9.79135,0.00000,0.00000,-0.00000,0.34718,-0.09156,-0.64204,-0.31584,101.88025,-0.35665,0.63013,0.00068,-0.00410,0.77648,1,0,
06.29 16:43:59:113,51786,0.04649,-0.05097,9.81324,0.00000,0.00000,-0.00000,0.34818,-0.09005,-0.64203,-0.31644,101.88110,-0.35622,0.63013,0.00067,-0.00410,0.77648,1,0,
06.29 16:43:59:124,51787,0.04969,-0.05266,9.77252,0.00000,0.00000,-0.00000,0.34719,-0.08955,-0.64253,-0.31620,101.88041,-0.35799,0.63013,0.00069,-0.00411,0.77648,1,0,
06.29 16:43:59:133,51788,0.07150,-0.04365,9.79643,0.00000,0.00000,-0.00000,0.34668,-0.09207,-0.64155,-0.31585,101.87994,-0.36124,0.63014,0.00071,-0.00413,0.77647,1,0,
06.29 16:43:59:144,51789,0.09532,-0.06453,9.79922,0.00000,0.00000,-0.00000,0.34818,-0.09053,-0.64302,-0.31563,101.88128,-0.36016,0.63013,0.00070,-0.00412,0.77648,1,0,
06.29 16:43:59:153,51790,0.04322,-0.06250,9.78210,0.00000,0.00000,-0.00000,0.34818,-0.08953,-0.64302,-0.31575,101.88222,-0.35780,0.63012,0.00069,-0.00411,0.77649,1,0,
06.29 16:43:59:163,51791,0.04467,-0.08387,9.80957,0.00000,0.00000,-0.00000,0.34620,-0.08953,-0.64353,-0.31666,101.88219,-0.35680,0.63012,0.00068,-0.00411,0.77649,1,0,
06.29 16:43:59:173,51792,0.07182,-0.05191,9.77800,0.00000,0.00000,-0.00000,0.34867,-0.08955,-0.64202,-0.31451,101.88136,-0.35707,0.63013,0.00069,-0.00409,0.77648,1,0,
06.29 16:43:59:182,51793,0.06901,-0.06043,9.79745,0.00000,0.00000,-0.00000,0.34769,-0.09001,-0.64452,-0.31630,101.88076,-0.35764,0.63013,0.00068,-0.00411,0.77648,1,0,
06.29 16:43:59:192,51794,0.07038,-0.06475,9.79757,0.00000,0.00000,-0.00000,0.34768,-0.09156,-0.64154,-0.31522,101.88072,-0.35784,0.63013,0.00069,-0.00410,0.77648,1,0,
06.29 16:43:59:203,51795,0.06998,-0.06541,9.79605,0.00000,0.00000,-0.00000,0.34918,-0.09001,-0.64401,-0.31450,101.88051,-0.35781,0.63013,0.00070,-0.00410,0.77648,1,0,
06.29 16:43:59:213,51796,0.07522,-0.05844,9.78792,0.00000,0.00000,-0.00000,0.34670,-0.09251,-0.64453,-0.31642,101.88168,-0.35782,0.63012,0.00068,-0.00411,0.77648,1,0,
06.29 16:43:59:222,51797,0.04462,-0.06100,9.80029,0.00000,0.00000,-0.00000,0.35016,-0.09006,-0.64151,-0.31698,101.88168,-0.35760,0.63012,0.00068,-0.00411,0.77648,1,0,
06.29 16:43:59:233,51798,0.05120,-0.06984,9.79917,0.00000,0.00000,-0.00000,0.34867,-0.09056,-0.64153,-0.31628,101.88237,-0.35692,0.63012,0.00068,-0.00411,0.77649,1,0,
06.29 16:43:59:243,51799,0.04554,-0.05065,9.78613,0.00000,0.00000,-0.00000,0.34670,-0.09002,-0.64403,-0.31653,101.88241,-0.35604,0.63012,0.00067,-0.00410,0.77649,1,0,
06.29 16:43:59:253,51800,0.04492,-0.05636,9.80468,0.00000,0.00000,-0.00000,0.34569,-0.09007,-0.64155,-0.31602,101.88166,-0.35674,0.63012,0.00068,-0.00410,0.77648,1,0,
06.29 16:43:59:263,51801,0.05881,-0.06470,9.80606,0.00000,0.00000,-0.00000,0.34569,-0.09059,-0.64055,-0.31682,101.88197,-0.35651,0.63012,0.00067,-0.00411,0.77649,1,0,
06.29 16:43:59:272,51802,0.04740,-0.04997,9.80024,0.00000,0.00000,-0.00000,0.34520,-0.09004,-0.64304,-0.31775,101.88216,-0.35617,0.63012,0.00067,-0.00411,0.77649,1,0,
06.29 16:43:59:281,51803,0.04982,-0.07352,9.80015,0.00000,0.00000,-0.00000,0.34768,-0.09106,-0.64154,-0.31741,101.88158,-0.35796,0.63012,0.00068,-0.00412,0.77648,1,0,
06.29 16:43:59:292,51804,0.07215,-0.06308,9.79471,0.00000,0.00000,-0.00000,0.34916,-0.09107,-0.64103,-0.31787,101.88132,-0.35839,0.63013,0.00068,-0.00412,0.77648,1,0,
06.29 16:43:59:302,51805,0.06847,-0.04880,9.79381,0.00000,0.00000,-0.00000,0.34768,-0.08856,-0.64202,-0.31636,101.88116,-0.35881,0.63013,0.00069,-0.00412,0.77648,1,0,
06.29 16:43:59:312,51806,0.06418,-0.04216,9.80673,0.00000,0.00000,-0.00000,0.34818,-0.09105,-0.64203,-0.31758,101.88190,-0.35975,0.63012,0.00069,-0.00413,0.77648,1,0,
06.29 16:43:59:322,51807,0.05229,-0.06220,9.79302,0.00000,0.00000,-0.00000,0.34769,-0.09050,-0.64452,-0.32077,101.88300,-0.35972,0.63011,0.00067,-0.00415,0.77649,1,0,
06.29 16:43:59:334,51808,0.04793,-0.07195,9.79257,0.00000,0.00000,-0.00000,0.34718,-0.09006,-0.64203,-0.32027,101.88270,-0.36001,0.63012,0.00068,-0.00415,0.77649,1,0,
06.29 16:43:59:343,51809,0.05894,-0.06574,9.81147,0.00000,0.00000,-0.00000,0.34470,-0.09507,-0.64157,-0.32065,101.88294,-0.35928,0.63012,0.00067,-0.00415,0.77649,1,0,
06.29 16:43:59:352,51810,0.05631,-0.05656,9.79295,0.00000,0.00000,-0.00000,0.34818,-0.09002,-0.64352,-0.32069,101.88361,-0.35878,0.63011,0.00067,-0.00415,0.77649,1,0,
06.29 16:43:59:363,51811,0.06604,-0.06199,9.79788,0.00000,0.00000,-0.00000,0.34669,-0.08953,-0.64353,-0.32052,101.88398,-0.35846,0.63011,0.00067,-0.00414,0.77650,1,0,
06.29 16:43:59:372,51812,0.05902,-0.06901,9.78501,0.00000,0.00000,-0.00000,0.34619,-0.09055,-0.64254,-0.32158,101.88438,-0.35911,0.63011,0.00067,-0.00415,0.77650,1,0,
06.29 16:43:59:382,51813,0.06340,-0.02925,9.79600,0.00000,0.00000,-0.00000,0.34669,-0.09053,-0.64353,-0.32363,101.88432,-0.35962,0.63011,0.00066,-0.00417,0.77650,1,0,
06.29 16:43:59:392,51814,0.06991,-0.06536,9.80342,0.00000,0.00000,-0.00000,0.34966,-0.08907,-0.64101,-0.32224,101.88366,-0.35924,0.63011,0.00066,-0.00416,0.77649,1,0,
06.29 16:43:59:403,51815,0.06710,-0.05648,9.79588,0.00000,0.00000,-0.00000,0.34669,-0.09003,-0.64353,-0.32277,101.88409,-0.35993,0.63011,0.00066,-0.00417,0.77650,1,0,
06.29 16:43:59:413,51816,0.05548,-0.06992,9.80058,0.00000,0.00000,-0.00000,0.34817,-0.08906,-0.64202,-0.32230,101.88452,-0.36015,0.63010,0.00067,-0.00416,0.77650,1,0,
06.29 16:43:59:422,51817,0.06122,-0.06478,9.79202,0.00000,0.00000,-0.00000,0.34619,-0.09308,-0.64106,-0.32251,101.88441,-0.36025,0.63011,0.00067,-0.00417,0.77650,1,0,
06.29 16:43:59:433,51818,0.07508,-0.07397,9.78725,0.00000,0.00000,-0.00000,0.34719,-0.09055,-0.64253,-0.32536,101.88441,-0.36025,0.63011,0.00065,-0.00419,0.77650,1,0,
06.29 16:43:59:442,51819,0.06946,-0.04789,9.79309,0.00000,0.00000,-0.00000,0.34568,-0.08910,-0.64005,-0.32386,101.88415,-0.35929,0.63011,0.00065,-0.00417,0.77650,1,0,
06.29 16:43:59:452,51820,0.05597,-0.05528,9.79495,0.00000,0.00000,-0.00000,0.34768,-0.09154,-0.64253,-0.32386,101.88381,-0.35968,0.63011,0.00066,-0.00417,0.77649,1,0,
06.29 16:43:59:463,51821,0.06232,-0.06957,9.80048,0.00000,0.00000,-0.00000,0.34818,-0.08953,-0.64302,-0.32255,101.88303,-0.35929,0.63011,0.00066,-0.00416,0.77649,1,0,
06.29 16:43:59:473,51822,0.06001,-0.05788,9.78978,0.00000,0.00000,-0.00000,0.34966,-0.09056,-0.64152,-0.32167,101.88338,-0.35901,0.63011,0.00066,-0.00415,0.77649,1,0,
06.29 16:43:59:482,51823,0.06609,-0.06756,9.80621,0.00000,0.00000,-0.00000,0.34917,-0.09104,-0.64252,-0.32092,101.88273,-0.35880,0.63012,0.00067,-0.00415,0.77649,1,0,
06.29 16:43:59:492,51824,0.08287,-0.05762,9.78625,0.00000,0.00000,-0.00000,0.34767,-0.09209,-0.64005,-0.32221,101.88241,-0.35863,0.63012,0.00066,-0.00416,0.77649,1,0,
06.29 16:43:59:503,51825,0.06072,-0.06299,9.79536,0.00000,0.00000,-0.00000,0.34718,-0.09257,-0.64105,-0.32162,101.88323,-0.35732,0.63011,0.00065,-0.00414,0.77649,1,0,
06.29 16:43:59:513,51826,0.05614,-0.06270,9.79335,0.00000,0.00000,-0.00000,0.34767,-0.09409,-0.64005,-0.32093,101.88351,-0.35585,0.63011,0.00065,-0.00413,0.77649,1,0,
06.29 16:43:59:522,51827,0.06215,-0.04485,9.80189,0.00000,0.00000,-0.00000,0.34769,-0.09052,-0.64352,-0.32035,101.88419,-0.35564,0.63011,0.00065,-0.00413,0.77650,1,0,
06.29 16:43:59:533,51828,0.04506,-0.06306,9.78930,0.00000,0.00000,-0.00000,0.34571,-0.08951,-0.64453,-0.31984,101.88364,-0.35611,0.63011,0.00065,-0.00413,0.77649,1,0,
06.29 16:43:59:542,51829,0.05057,-0.06358,9.79860,0.00000,0.00000,-0.00000,0.34868,-0.09051,-0.64401,-0.31988,101.88337,-0.35631,0.63011,0.00066,-0.00413,0.77649,1,0,
06.29 16:43:59:553,51830,0.05645,-0.05772,9.79915,0.00000,0.00000,-0.00000,0.34769,-0.09002,-0.64402,-0.32106,101.88321,-0.35561,0.63011,0.00064,-0.00413,0.77649,1,0,
06.29 16:43:59:562,51831,0.07610,-0.06501,9.79381,0.00000,0.00000,-0.00000,0.34966,-0.09158,-0.64053,-0.32000,101.88248,-0.35502,0.63012,0.00065,-0.00412,0.77649,1,0,
06.29 16:43:59:573,51832,0.07200,-0.07803,9.78160,0.00000,0.00000,-0.00000,0.34768,-0.09254,-0.64254,-0.32103,101.88340,-0.35589,0.63011,0.00065,-0.00413,0.77649,1,0,
06.29 16:43:59:583,51833,0.04933,-0.05636,9.79230,0.00000,0.00000,-0.00000,0.34817,-0.08856,-0.64202,-0.32210,101.88390,-0.35522,0.63011,0.00064,-0.00414,0.77650,1,0,
06.29 16:43:59:593,51834,0.06854,-0.06910,9.79292,0.00000,0.00000,-0.00000,0.34818,-0.09104,-0.64253,-0.32216,101.88365,-0.35532,0.63011,0.00064,-0.00414,0.77649,1,0,
06.29 16:43:59:603,51835,0.07248,-0.07086,9.80148,0.00000,0.00000,-0.00000,0.34867,-0.09307,-0.64104,-0.32282,101.88409,-0.35519,0.63011,0.00063,-0.00414,0.77650,1,0,
06.29 16:43:59:612,51836,0.03551,-0.07054,9.78768,0.00000,0.00000,-0.00000,0.34817,-0.09006,-0.64153,-0.32311,101.88482,-0.35571,0.63010,0.00063,-0.00415,0.77650,1,0,
06.29 16:43:59:623,51837,0.05246,-0.05081,9.79431,0.00000,0.00000,-0.00000,0.34768,-0.09255,-0.64204,-0.32359,101.88435,-0.35646,0.63011,0.00064,-0.00415,0.77650,1,0,
06.29 16:43:59:632,51838,0.07577,-0.04863,9.78129,0.00000,0.00000,-0.00000,0.34818,-0.09005,-0.64203,-0.32533,101.88583,-0.35668,0.63010,0.00063,-0.00417,0.77651,1,0,
06.29 16:43:59:642,51839,0.06454,-0.04747,9.80384,0.00000,0.00000,-0.00000,0.34768,-0.09105,-0.64203,-0.32631,101.88575,-0.35696,0.63010,0.00062,-0.00417,0.77651,1,0,
06.29 16:43:59:652,51840,0.04800,-0.06557,9.79641,0.00000,0.00000,-0.00000,0.34819,-0.08852,-0.64401,-0.32459,101.88476,-0.35653,0.63010,0.00063,-0.00416,0.77650,1,0,
06.29 16:43:59:662,51841,0.06280,-0.07922,9.79440,0.00000,0.00000,-0.00000,0.34917,-0.09106,-0.64152,-0.32319,101.88354,-0.35645,0.63011,0.00064,-0.00415,0.77649,1,0,
06.29 16:43:59:672,51842,0.07652,-0.06187,9.80101,0.00000,0.00000,-0.00000,0.34669,-0.09056,-0.64204,-0.32155,101.88341,-0.35659,0.63011,0.00065,-0.00414,0.77649,1,0,
06.29 16:43:59:683,51843,0.08273,-0.06197,9.79779,0.00000,0.00000,-0.00000,0.34669,-0.09206,-0.64204,-0.32179,101.88398,-0.35561,0.63011,0.00064,-0.00414,0.77650,1,0,
06.29 16:43:59:692,51844,0.03602,-0.05208,9.78832,0.00000,0.00000,-0.00000,0.34670,-0.09001,-0.64453,-0.32289,101.88365,-0.35476,0.63011,0.00063,-0.00414,0.77649,1,0,
06.29 16:43:59:704,51845,0.06557,-0.05017,9.79624,0.00000,0.00000,-0.00000,0.34719,-0.08854,-0.64302,-0.32273,101.88348,-0.35457,0.63011,0.00063,-0.00414,0.77649,1,0,
06.29 16:43:59:712,51846,0.07029,-0.05894,9.80055,0.00000,0.00000,-0.00000,0.34718,-0.09205,-0.64204,-0.32415,101.88412,-0.35509,0.63011,0.00062,-0.00415,0.77650,1,0,
06.29 16:43:59:722,51847,0.08141,-0.03469,9.78947,0.00000,0.00000,-0.00000,0.34818,-0.09004,-0.64252,-0.32484,101.88450,-0.35516,0.63010,0.00062,-0.00415,0.77650,1,0,
06.29 16:43:59:732,51848,0.04543,-0.05555,9.79486,0.00000,0.00000,-0.00000,0.35115,-0.09008,-0.64051,-0.32341,101.88426,-0.35479,0.63011,0.00063,-0.00414,0.77650,1,0,
06.29 16:43:59:743,51849,0.04375,-0.05180,9.81379,0.00000,0.00000,-0.00000,0.34967,-0.08954,-0.64251,-0.32088,101.87112,-0.35735,0.63020,0.00066,-0.00414,0.77643,1,0,
06.29 16:43:59:753,51850,0.04189,-0.06182,9.79464,0.00000,0.00000,-0.00000,0.34917,-0.08954,-0.64251,-0.32115,101.87182,-0.35733,0.63019,0.00066,-0.00414,0.77643,1,0,
06.29 16:43:59:761,51851,0.04752,-0.05956,9.81288,0.00000,0.00000,-0.00000,0.34718,-0.09156,-0.64204,-0.32071,101.87123,-0.35660,0.63019,0.00065,-0.00413,0.77643,1,0,
06.29 16:43:59:772,51852,0.07291,-0.05559,9.79502,0.00000,0.00000,-0.00000,0.34570,-0.09002,-0.64404,-0.32167,101.87239,-0.35693,0.63019,0.00065,-0.00414,0.77643,1,0,
06.29 16:43:59:783,51853,0.06790,-0.05602,9.77511,0.00000,0.00000,-0.00000,0.34819,-0.08948,-0.64551,-0.32025,101.87112,-0.35818,0.63020,0.00067,-0.00414,0.77643,1,0,
06.29 16:43:59:792,51854,0.08479,-0.05311,9.79772,0.00000,0.00000,-0.00000,0.34669,-0.09156,-0.64204,-0.32052,101.87227,-0.35929,0.63019,0.00067,-0.00415,0.77643,1,0,
06.29 16:43:59:803,51855,0.05724,-0.04429,9.79531,0.00000,0.00000,-0.00000,0.34719,-0.09055,-0.64253,-0.32241,101.87333,-0.35979,0.63018,0.00066,-0.00416,0.77644,1,0,
06.29 16:43:59:813,51856,0.07244,-0.06786,9.79636,0.00000,0.00000,-0.00000,0.34816,-0.09010,-0.63954,-0.32205,101.87334,-0.35928,0.63018,0.00066,-0.00416,0.77644,1,0,
06.29 16:43:59:822,51857,0.06677,-0.07005,9.81574,0.00000,0.00000,-0.00000,0.34719,-0.08955,-0.64253,-0.32116,101.87295,-0.35841,0.63018,0.00066,-0.00415,0.77644,1,0,
06.29 16:43:59:832,51858,0.05443,-0.05447,9.79586,0.00000,0.00000,-0.00000,0.34966,-0.09107,-0.64102,-0.32025,101.87255,-0.35834,0.63019,0.00067,-0.00414,0.77643,1,0,
06.29 16:43:59:843,51859,0.06947,-0.05257,9.79338,0.00000,0.00000,-0.00000,0.34917,-0.09306,-0.64153,-0.31942,101.87222,-0.35803,0.63019,0.00067,-0.00413,0.77643,1,0,
06.29 16:43:59:852,51860,0.05297,-0.05548,9.79400,0.00000,0.00000,-0.00000,0.34868,-0.09252,-0.64352,-0.32081,101.87206,-0.35756,0.63019,0.00066,-0.00414,0.77643,1,0,
06.29 16:43:59:862,51861,0.06024,-0.04963,9.79078,0.00000,0.00000,-0.00000,0.34916,-0.09157,-0.64103,-0.32174,101.87269,-0.35750,0.63018,0.00065,-0.00415,0.77643,1,0,
06.29 16:43:59:872,51862,0.05618,-0.04549,9.78794,0.00000,0.00000,-0.00000,0.34868,-0.09252,-0.64352,-0.31939,101.87191,-0.35602,0.63019,0.00066,-0.00412,0.77643,1,0,
06.29 16:43:59:882,51863,0.07783,-0.06609,9.79285,0.00000,0.00000,-0.00000,0.34916,-0.09007,-0.64102,-0.31923,101.87167,-0.35667,0.63019,0.00066,-0.00412,0.77643,1,0,
06.29 16:43:59:892,51864,0.04631,-0.06762,9.78866,0.00000,0.00000,-0.00000,0.34718,-0.09056,-0.64204,-0.31866,101.87144,-0.35637,0.63019,0.00066,-0.00412,0.77643,1,0,
06.29 16:43:59:903,51865,0.04395,-0.06174,9.80177,0.00000,0.00000,-0.00000,0.34868,-0.09153,-0.64302,-0.31896,101.87197,-0.35612,0.63019,0.00066,-0.00412,0.77643,1,0,
06.29 16:43:59:913,51866,0.06011,-0.06107,9.78262,0.00000,0.00000,-0.00000,0.34965,-0.09159,-0.64003,-0.32126,101.87128,-0.35678,0.63019,0.00065,-0.00414,0.77643,1,0,
06.29 16:43:59:922,51867,0.07914,-0.04064,9.79190,0.00000,0.00000,-0.00000,0.34768,-0.09204,-0.64253,-0.32070,101.87222,-0.35597,0.63019,0.00065,-0.00413,0.77643,1,0,
06.29 16:43:59:933,51868,0.05904,-0.04789,9.79102,0.00000,0.00000,-0.00000,0.34718,-0.09208,-0.64055,-0.31860,101.87197,-0.35608,0.63019,0.00066,-0.00412,0.77643,1,0,
06.29 16:43:59:943,51869,0.07901,-0.06226,9.80342,0.00000,0.00000,-0.00000,0.34768,-0.08857,-0.64153,-0.31812,101.87167,-0.35683,0.63019,0.00067,-0.00412,0.77643,1,0,
06.29 16:43:59:954,51870,0.05755,-0.07275,9.79035,0.00000,0.00000,-0.00000,0.34818,-0.09002,-0.64352,-0.31751,101.87094,-0.35662,0.63020,0.00067,-0.00411,0.77642,1,0,
06.29 16:43:59:965,51871,0.05902,-0.07647,9.80277,0.00000,0.00000,-0.00000,0.34768,-0.08856,-0.64202,-0.31757,101.87057,-0.35732,0.63020,0.00067,-0.00412,0.77642,1,0,
06.29 16:43:59:973,51872,0.04518,-0.05098,9.78587,0.00000,0.00000,-0.00000,0.34770,-0.09249,-0.64502,-0.31908,101.87025,-0.35662,0.63020,0.00066,-0.00412,0.77642,1,0,
06.29 16:43:59:986,51873,0.06350,-0.07250,9.79726,0.00000,0.00000,-0.00000,0.34916,-0.09057,-0.64102,-0.31859,101.87041,-0.35653,0.63020,0.00066,-0.00412,0.77642,1,0,
06.29 16:43:59:996,51874,0.05758,-0.05845,9.79838,0.00000,0.00000,-0.00000,0.34619,-0.09306,-0.64205,-0.31994,101.87029,-0.35657,0.63020,0.00066,-0.00413,0.77642,1,0,
06.29 16:44:00:008,51875,0.06307,-0.06260,9.80737,0.00000,0.00000,-0.00000,0.34669,-0.09306,-0.64205,-0.32071,101.87099,-0.35806,0.63020,0.00066,-0.00414,0.77642,1,0,
06.29 16:44:00:016,51876,0.06395,-0.06595,9.79204,0.00000,0.00000,-0.00000,0.34967,-0.09253,-0.64302,-0.32059,101.87068,-0.35834,0.63020,0.00066,-0.00414,0.77642,1,0,
06.29 16:44:00:023,51877,0.06569,-0.06397,9.79671,0.00000,0.00000,-0.00000,0.34569,-0.09108,-0.64105,-0.32382,101.87144,-0.35752,0.63019,0.00064,-0.00416,0.77643,1,0,
06.29 16:44:00:034,51878,0.07853,-0.04487,9.78479,0.00000,0.00000,-0.00000,0.34868,-0.09203,-0.64302,-0.32445,101.87281,-0.35854,0.63018,0.00065,-0.00417,0.77643,1,0,
06.29 16:44:00:043,51879,0.08289,-0.04201,9.80308,0.00000,0.00000,-0.00000,0.34768,-0.09053,-0.64303,-0.32254,101.87321,-0.35733,0.63018,0.00065,-0.00415,0.77644,1,0,
06.29 16:44:00:053,51880,0.05930,-0.04666,9.78861,0.00000,0.00000,-0.00000,0.34818,-0.09153,-0.64303,-0.32298,101.87407,-0.35744,0.63018,0.00065,-0.00415,0.77644,1,0,
06.29 16:44:00:063,51881,0.06730,-0.05782,9.80797,0.00000,0.00000,-0.00000,0.34967,-0.09152,-0.64351,-0.32288,101.87338,-0.35722,0.63018,0.00064,-0.00415,0.77644,1,0,
06.29 16:44:00:073,51882,0.07744,-0.05753,9.78279,0.00000,0.00000,-0.00000,0.34718,-0.09156,-0.64204,-0.32110,101.87241,-0.35644,0.63019,0.00065,-0.00414,0.77643,1,0,
06.29 16:44:00:082,51883,0.05519,-0.05318,9.80375,0.00000,0.00000,-0.00000,0.34917,-0.09005,-0.64202,-0.32245,101.87292,-0.35711,0.63018,0.00065,-0.00415,0.77644,1,0,
06.29 16:44:00:093,51884,0.05081,-0.05462,9.80411,0.00000,0.00000,-0.00000,0.34668,-0.09208,-0.64105,-0.32170,101.87206,-0.35717,0.63019,0.00065,-0.00414,0.77643,1,0,
06.29 16:44:00:103,51885,0.03871,-0.06732,9.80587,0.00000,0.00000,-0.00000,0.34718,-0.09107,-0.64154,-0.32162,101.87314,-0.35776,0.63018,0.00066,-0.00415,0.77644,1,0,
06.29 16:44:00:113,51886,0.04752,-0.05261,9.78789,0.00000,0.00000,-0.00000,0.34668,-0.09010,-0.64005,-0.32328,101.87307,-0.35752,0.63018,0.00064,-0.00416,0.77644,1,0,
06.29 16:44:00:122,51887,0.06204,-0.06586,9.82103,0.00000,0.00000,-0.00000,0.34967,-0.09152,-0.64351,-0.32290,101.87347,-0.35834,0.63018,0.00065,-0.00416,0.77644,1,0,
06.29 16:44:00:133,51888,0.07193,-0.04448,9.79676,0.00000,0.00000,-0.00000,0.34768,-0.08957,-0.64153,-0.32318,101.87342,-0.35866,0.63018,0.00065,-0.00416,0.77644,1,0,
06.29 16:44:00:143,51889,0.05277,-0.05488,9.79803,0.00000,0.00000,-0.00000,0.34619,-0.09207,-0.64155,-0.32336,101.87354,-0.35865,0.63018,0.00065,-0.00416,0.77644,1,0,
06.29 16:44:00:153,51890,0.05923,-0.04936,9.80861,0.00000,0.00000,-0.00000,0.34669,-0.09155,-0.64254,-0.32212,101.87358,-0.35974,0.63018,0.00067,-0.00416,0.77644,1,0,
06.29 16:44:00:162,51891,0.05832,-0.06020,9.79488,0.00000,0.00000,-0.00000,0.34916,-0.09258,-0.64053,-0.32390,101.87487,-0.36051,0.63017,0.00066,-0.00418,0.77645,1,0,
06.29 16:44:00:172,51892,0.07066,-0.06911,9.78718,0.00000,0.00000,-0.00000,0.34819,-0.09001,-0.64402,-0.32384,101.87462,-0.35990,0.63017,0.00066,-0.00417,0.77644,1,0,
06.29 16:44:00:182,51893,0.05958,-0.06086,9.79359,0.00000,0.00000,-0.00000,0.34867,-0.09057,-0.64103,-0.32273,101.87447,-0.36016,0.63017,0.00067,-0.00417,0.77644,1,0,
06.29 16:44:00:193,51894,0.06405,-0.05031,9.78270,0.00000,0.00000,-0.00000,0.34867,-0.08904,-0.64252,-0.32444,101.87533,-0.35992,0.63017,0.00065,-0.00418,0.77645,1,0,
06.29 16:44:00:203,51895,0.05602,-0.06580,9.79729,0.00000,0.00000,-0.00000,0.34866,-0.09008,-0.64053,-0.32528,101.87548,-0.36102,0.63017,0.00066,-0.00419,0.77645,1,0,
06.29 16:44:00:212,51896,0.04494,-0.04224,9.78913,0.00000,0.00000,-0.00000,0.34768,-0.09155,-0.64203,-0.32508,101.87564,-0.36173,0.63016,0.00066,-0.00419,0.77645,1,0,
06.29 16:44:00:222,51897,0.05194,-0.04838,9.79297,0.00000,0.00000,-0.00000,0.34668,-0.09058,-0.64104,-0.32755,101.87646,-0.36210,0.63016,0.00065,-0.00421,0.77645,1,0,
06.29 16:44:00:233,51898,0.07211,-0.05531,9.79383,0.00000,0.00000,-0.00000,0.34966,-0.09057,-0.64102,-0.32536,101.87540,-0.36326,0.63017,0.00067,-0.00420,0.77645,1,0,
06.29 16:44:00:242,51899,0.06331,-0.05745,9.79734,0.00000,0.00000,-0.00000,0.34867,-0.09155,-0.64203,-0.32619,101.87563,-0.36378,0.63016,0.00067,-0.00421,0.77645,1,0,
06.29 16:44:00:253,51900,0.06486,-0.05525,9.79965,0.00000,0.00000,-0.00000,0.34719,-0.09054,-0.64303,-0.32520,101.87597,-0.36410,0.63016,0.00068,-0.00421,0.77645,1,0,
06.29 16:44:00:263,51901,0.06213,-0.06253,9.78410,0.00000,0.00000,-0.00000,0.34869,-0.09150,-0.64451,-0.32402,101.87621,-0.36374,0.63016,0.00068,-0.00420,0.77645,1,0,
06.29 16:44:00:272,51902,0.04404,-0.05776,9.79321,0.00000,0.00000,-0.00000,0.34569,-0.09157,-0.64155,-0.32371,101.87727,-0.36407,0.63015,0.00069,-0.00420,0.77646,1,0,
06.29 16:44:00:282,51903,0.06015,-0.05437,9.80120,0.00000,0.00000,-0.00000,0.34966,-0.08856,-0.64151,-0.32363,101.87810,-0.36466,0.63015,0.00069,-0.00420,0.77646,1,0,
06.29 16:44:00:293,51904,0.05442,-0.05713,9.80656,0.00000,0.00000,-0.00000,0.34670,-0.09202,-0.64404,-0.32234,101.87696,-0.36483,0.63016,0.00070,-0.00419,0.77646,1,0,
06.29 16:44:00:303,51905,0.07580,-0.06685,9.80160,0.00000,0.00000,-0.00000,0.34768,-0.09205,-0.64204,-0.32289,101.87708,-0.36526,0.63015,0.00070,-0.00420,0.77646,1,0,
06.29 16:44:00:312,51906,0.06329,-0.05648,9.79669,0.00000,0.00000,-0.00000,0.34668,-0.09107,-0.64154,-0.32237,101.87710,-0.36428,0.63015,0.00070,-0.00419,0.77646,1,0,
06.29 16:44:00:323,51907,0.04363,-0.03851,9.79044,0.00000,0.00000,-0.00000,0.34668,-0.09059,-0.64055,-0.32312,101.87669,-0.36507,0.63016,0.00070,-0.00420,0.77646,1,0,
06.29 16:44:00:332,51908,0.05623,-0.06421,9.80654,0.00000,0.00000,-0.00000,0.34867,-0.09055,-0.64202,-0.32361,101.87708,-0.36520,0.63015,0.00070,-0.00420,0.77646,1,0,
06.29 16:44:00:342,51909,0.05603,-0.06219,9.78575,0.00000,0.00000,-0.00000,0.34669,-0.09405,-0.64205,-0.32376,101.87690,-0.36518,0.63016,0.00069,-0.00420,0.77646,1,0,
06.29 16:44:00:353,51910,0.06271,-0.04232,9.79354,0.00000,0.00000,-0.00000,0.34818,-0.09202,-0.64353,-0.32238,101.87705,-0.36544,0.63016,0.00070,-0.00419,0.77646,1,0,
06.29 16:44:00:362,51911,0.06809,-0.06435,9.79338,0.00000,0.00000,-0.00000,0.34868,-0.09252,-0.64352,-0.32187,101.87683,-0.36660,0.63016,0.00071,-0.00420,0.77646,1,0,
06.29 16:44:00:372,51912,0.04667,-0.06208,9.78780,0.00000,0.00000,-0.00000,0.34519,-0.08959,-0.64055,-0.32004,101.87730,-0.36645,0.63015,0.00072,-0.00418,0.77646,1,0,
06.29 16:44:00:383,51913,0.05549,-0.07480,9.78889,0.00000,0.00000,-0.00000,0.34718,-0.08858,-0.64103,-0.32277,101.87861,-0.36730,0.63014,0.00071,-0.00421,0.77647,1,0,
06.29 16:44:00:392,51914,0.07365,-0.05812,9.78730,0.00000,0.00000,-0.00000,0.34866,-0.09059,-0.64003,-0.32476,101.87925,-0.36630,0.63014,0.00070,-0.00421,0.77647,1,0,
06.29 16:44:00:403,51915,0.06796,-0.05741,9.78236,0.00000,0.00000,-0.00000,0.34718,-0.09107,-0.64154,-0.32405,101.88004,-0.36734,0.63013,0.00071,-0.00422,0.77647,1,0,
06.29 16:44:00:412,51916,0.05850,-0.07321,9.79872,0.00000,0.00000,-0.00000,0.34767,-0.09158,-0.64054,-0.32362,101.87965,-0.36823,0.63014,0.00072,-0.00422,0.77647,1,0,
06.29 16:44:00:423,51917,0.06184,-0.07011,9.80198,0.00000,0.00000,-0.00000,0.34769,-0.08902,-0.64402,-0.32466,101.87951,-0.36893,0.63014,0.00071,-0.00423,0.77647,1,0,
06.29 16:44:00:433,51918,0.06987,-0.07108,9.78954,0.00000,0.00000,-0.00000,0.34967,-0.09053,-0.64301,-0.32400,101.87845,-0.36941,0.63015,0.00072,-0.00423,0.77647,1,0,
06.29 16:44:00:442,51919,0.04728,-0.04958,9.82070,0.00000,0.00000,-0.00000,0.34867,-0.09204,-0.64253,-0.32456,101.87986,-0.36978,0.63014,0.00072,-0.00423,0.77647,1,0,
06.29 16:44:00:453,51920,0.07049,-0.06212,9.78575,0.00000,0.00000,-0.00000,0.34719,-0.09054,-0.64303,-0.32410,101.88012,-0.37067,0.63013,0.00073,-0.00423,0.77647,1,0,
06.29 16:44:00:462,51921,0.08614,-0.08159,9.79452,0.00000,0.00000,-0.00000,0.34817,-0.08956,-0.64153,-0.32248,101.87969,-0.37125,0.63014,0.00074,-0.00423,0.77647,1,0,
06.29 16:44:00:472,51922,0.07433,-0.06569,9.80096,0.00000,0.00000,-0.00000,0.34618,-0.09008,-0.64105,-0.32357,101.88017,-0.37094,0.63013,0.00073,-0.00423,0.77647,1,0,
06.29 16:44:00:482,51923,0.05489,-0.06380,9.78918,0.00000,0.00000,-0.00000,0.34869,-0.09250,-0.64452,-0.32159,101.88084,-0.37032,0.63013,0.00074,-0.00422,0.77648,1,0,
06.29 16:44:00:492,51924,0.06185,-0.04053,9.80451,0.00000,0.00000,-0.00000,0.34867,-0.09104,-0.64252,-0.31947,101.88024,-0.36966,0.63013,0.00075,-0.00420,0.77648,1,0,
06.29 16:44:00:502,51925,0.04741,-0.06982,9.78866,0.00000,0.00000,-0.00000,0.34767,-0.08808,-0.64103,-0.32119,101.88102,-0.36983,0.63013,0.00074,-0.00421,0.77648,1,0,
06.29 16:44:00:518,51926,0.06539,-0.05125,9.79924,0.00000,0.00000,-0.00000,0.34770,-0.08949,-0.64551,-0.32140,101.87990,-0.37068,0.63014,0.00074,-0.00422,0.77647,1,0,
06.29 16:44:00:523,51927,0.07705,-0.04679,9.78677,0.00000,0.00000,-0.00000,0.34818,-0.09004,-0.64252,-0.32127,101.88101,-0.37050,0.63013,0.00074,-0.00421,0.77648,1,0,
06.29 16:44:00:533,51928,0.06057,-0.06681,9.80082,0.00000,0.00000,-0.00000,0.34866,-0.09108,-0.64053,-0.32244,101.88113,-0.37044,0.63013,0.00074,-0.00422,0.77648,1,0,
06.29 16:44:00:543,51929,0.03519,-0.05531,9.79598,0.00000,0.00000,-0.00000,0.34867,-0.08904,-0.64252,-0.32151,101.88091,-0.37023,0.63013,0.00074,-0.00421,0.77648,1,0,
06.29 16:44:00:552,51930,0.05990,-0.05082,9.79543,0.00000,0.00000,-0.00000,0.34816,-0.09110,-0.63954,-0.32211,101.88033,-0.37006,0.63013,0.00074,-0.00422,0.77648,1,0,
06.29 16:44:00:563,51931,0.06340,-0.04339,9.80172,0.00000,0.00000,-0.00000,0.34768,-0.09153,-0.64303,-0.32117,101.87990,-0.36938,0.63014,0.00074,-0.00421,0.77647,1,0,
06.29 16:44:00:572,51932,0.05699,-0.05789,9.78110,0.00000,0.00000,-0.00000,0.34669,-0.09054,-0.64303,-0.32021,101.87967,-0.36972,0.63014,0.00074,-0.00420,0.77647,1,0,
06.29 16:44:00:582,51933,0.08777,-0.05745,9.82010,0.00000,0.00000,-0.00000,0.35116,-0.09101,-0.64350,-0.32060,101.88029,-0.36911,0.63013,0.00074,-0.00420,0.77648,1,0,
06.29 16:44:00:593,51934,0.05650,-0.03873,9.79960,0.00000,0.00000,-0.00000,0.34768,-0.09005,-0.64253,-0.32116,101.88058,-0.36855,0.63013,0.00073,-0.00420,0.77648,1,0,
06.29 16:44:00:603,51935,0.05309,-0.05287,9.80639,0.00000,0.00000,-0.00000,0.34767,-0.08959,-0.64053,-0.32225,101.88037,-0.36896,0.63013,0.00073,-0.00421,0.77648,1,0,
06.29 16:44:00:612,51936,0.06863,-0.05598,9.80206,0.00000,0.00000,-0.00000,0.34818,-0.08954,-0.64252,-0.32210,101.88023,-0.36974,0.63013,0.00073,-0.00422,0.77647,1,0,
06.29 16:44:00:623,51937,0.08553,-0.06072,9.80589,0.00000,0.00000,-0.00000,0.34767,-0.09258,-0.64055,-0.32230,101.87985,-0.37040,0.63014,0.00074,-0.00422,0.77647,1,0,
06.29 16:44:00:633,51938,0.08394,-0.04655,9.78289,0.00000,0.00000,-0.00000,0.34967,-0.09003,-0.64301,-0.32049,101.87981,-0.37094,0.63014,0.00075,-0.00421,0.77647,1,0,
06.29 16:44:00:642,51939,0.07434,-0.06788,9.79452,0.00000,0.00000,-0.00000,0.34967,-0.09101,-0.64401,-0.32213,101.88030,-0.37104,0.63013,0.00074,-0.00422,0.77648,1,0,
06.29 16:44:00:653,51940,0.05238,-0.06263,9.79192,0.00000,0.00000,-0.00000,0.34619,-0.09205,-0.64255,-0.32113,101.88041,-0.37055,0.63013,0.00075,-0.00421,0.77648,1,0,
06.29 16:44:00:663,51941,0.05210,-0.04687,9.78797,0.00000,0.00000,-0.00000,0.34866,-0.09058,-0.64053,-0.32025,101.88036,-0.37090,0.63013,0.00075,-0.00421,0.77648,1,0,
06.29 16:44:00:673,51942,0.06203,-0.05823,9.80647,0.00000,0.00000,-0.00000,0.34619,-0.08906,-0.64204,-0.32001,101.88132,-0.37155,0.63013,0.00076,-0.00421,0.77648,1,0,
06.29 16:44:00:683,51943,0.05758,-0.05718,9.78675,0.00000,0.00000,-0.00000,0.35065,-0.09057,-0.64101,-0.32024,101.88168,-0.37159,0.63012,0.00076,-0.00421,0.77648,1,0,
06.29 16:44:00:692,51944,0.06920,-0.04280,9.80773,0.00000,0.00000,-0.00000,0.34917,-0.09204,-0.64252,-0.31993,101.88229,-0.37161,0.63012,0.00076,-0.00421,0.77649,1,0,
06.29 16:44:00:703,51945,0.07570,-0.06193,9.79872,0.00000,0.00000,-0.00000,0.34768,-0.08956,-0.64203,-0.31971,101.88251,-0.37234,0.63012,0.00077,-0.00421,0.77649,1,0,
06.29 16:44:00:711,51946,0.06451,-0.06804,9.80551,0.00000,0.00000,-0.00000,0.34867,-0.09056,-0.64153,-0.31786,101.88134,-0.37223,0.63013,0.00077,-0.00420,0.77648,1,0,
06.29 16:44:00:723,51947,0.06660,-0.05328,9.78930,0.00000,0.00000,-0.00000,0.35015,-0.08959,-0.64002,-0.31663,101.88033,-0.37266,0.63013,0.00078,-0.00419,0.77648,1,0,
06.29 16:44:00:732,51948,0.06454,-0.07398,9.80296,0.00000,0.00000,-0.00000,0.35016,-0.09006,-0.64151,-0.31581,101.87978,-0.37210,0.63014,0.00078,-0.00419,0.77647,1,0,
06.29 16:44:00:743,51949,0.06342,-0.06358,9.80289,0.00000,0.00000,-0.00000,0.34915,-0.08911,-0.63903,-0.31463,101.87988,-0.37203,0.63014,0.00079,-0.00418,0.77647,1,0,
06.29 16:44:00:753,51950,0.06688,-0.05001,9.79369,0.00000,0.00000,-0.00000,0.34818,-0.08805,-0.64252,-0.31537,101.87907,-0.37303,0.63014,0.00079,-0.00419,0.77647,1,0,
06.29 16:44:00:762,51951,0.06806,-0.06800,9.79197,0.00000,0.00000,-0.00000,0.34619,-0.09006,-0.64204,-0.31342,101.87847,-0.37272,0.63015,0.00080,-0.00417,0.77647,1,0,
06.29 16:44:00:772,51952,0.07206,-0.05258,9.79836,0.00000,0.00000,-0.00000,0.34669,-0.08953,-0.64353,-0.31297,101.87812,-0.37323,0.63015,0.00081,-0.00417,0.77646,1,0,
06.29 16:44:00:783,51953,0.07142,-0.08311,9.80310,0.00000,0.00000,-0.00000,0.34817,-0.09057,-0.64103,-0.31409,101.87799,-0.37364,0.63015,0.00080,-0.00418,0.77646,1,0,
06.29 16:44:00:791,51954,0.04800,-0.05539,9.81560,0.00000,0.00000,-0.00000,0.34818,-0.09002,-0.64352,-0.31271,101.87807,-0.37341,0.63015,0.00081,-0.00417,0.77646,1,0,
06.29 16:44:00:803,51955,0.06532,-0.06257,9.78799,0.00000,0.00000,-0.00000,0.34767,-0.09057,-0.64104,-0.31250,101.87843,-0.37207,0.63015,0.00080,-0.00416,0.77647,1,0,
06.29 16:44:00:813,51956,0.05458,-0.06657,9.79381,0.00000,0.00000,-0.00000,0.34719,-0.09052,-0.64403,-0.31607,101.87992,-0.37206,0.63014,0.00078,-0.00419,0.77647,1,0,
06.29 16:44:00:822,51957,0.04679,-0.05882,9.78999,0.00000,0.00000,-0.00000,0.34768,-0.09156,-0.64154,-0.31651,101.87998,-0.37231,0.63014,0.00078,-0.00419,0.77647,1,0,
06.29 16:44:00:832,51958,0.04031,-0.05340,9.80153,0.00000,0.00000,-0.00000,0.34769,-0.09003,-0.64352,-0.31617,101.88081,-0.37199,0.63013,0.00078,-0.00419,0.77648,1,0,
06.29 16:44:00:843,51959,0.08100,-0.05179,9.79695,0.00000,0.00000,-0.00000,0.34917,-0.09205,-0.64202,-0.31495,101.87987,-0.37162,0.63014,0.00079,-0.00418,0.77647,1,0,
06.29 16:44:00:853,51960,0.07630,-0.05673,9.79052,0.00000,0.00000,-0.00000,0.34767,-0.09061,-0.63954,-0.31557,101.87952,-0.37106,0.63014,0.00078,-0.00418,0.77647,1,0,
06.29 16:44:00:863,51961,0.05283,-0.04813,9.78472,0.00000,0.00000,-0.00000,0.34669,-0.09156,-0.64204,-0.31495,101.87968,-0.37103,0.63014,0.00078,-0.00417,0.77647,1,0,
06.29 16:44:00:871,51962,0.06545,-0.05716,9.79629,0.00000,0.00000,-0.00000,0.34669,-0.09055,-0.64254,-0.31468,101.87949,-0.37101,0.63014,0.00078,-0.00417,0.77647,1,0,
06.29 16:44:00:884,51963,0.05859,-0.05434,9.79242,0.00000,0.00000,-0.00000,0.34819,-0.08951,-0.64401,-0.31441,101.87956,-0.37164,0.63014,0.00079,-0.00417,0.77647,1,0,
06.29 16:44:00:893,51964,0.05378,-0.05159,9.80957,0.00000,0.00000,-0.00000,0.34867,-0.08806,-0.64152,-0.31572,101.88042,-0.37122,0.63013,0.00078,-0.00418,0.77648,1,0,
06.29 16:44:00:903,51965,0.05660,-0.07182,9.79989,0.00000,0.00000,-0.00000,0.35016,-0.09156,-0.64152,-0.31489,101.87997,-0.37034,0.63014,0.00078,-0.00417,0.77647,1,0,
06.29 16:44:00:912,51966,0.05673,-0.06576,9.79092,0.00000,0.00000,-0.00000,0.34718,-0.09106,-0.64204,-0.31659,101.87981,-0.37072,0.63014,0.00077,-0.00418,0.77647,1,0,
06.29 16:44:00:924,51967,0.07476,-0.05307,9.79395,0.00000,0.00000,-0.00000,0.34667,-0.08863,-0.63855,-0.31778,101.88038,-0.37116,0.63013,0.00077,-0.00419,0.77648,1,0,
06.29 16:44:00:937,51968,0.08200,-0.06787,9.79381,0.00000,0.00000,-0.00000,0.34867,-0.09004,-0.64252,-0.31728,101.87933,-0.37119,0.63014,0.00077,-0.00419,0.77647,1,0,
06.29 16:44:00:946,51969,0.06401,-0.05039,9.80573,0.00000,0.00000,-0.00000,0.34720,-0.09101,-0.64453,-0.31793,101.87964,-0.37080,0.63014,0.00076,-0.00419,0.77647,1,0,
06.29 16:44:00:951,51970,0.05944,-0.06593,9.80062,0.00000,0.00000,-0.00000,0.34867,-0.09055,-0.64202,-0.31861,101.87930,-0.37116,0.63014,0.00076,-0.00420,0.77647,1,0,
06.29 16:44:00:962,51971,0.06557,-0.06957,9.79259,0.00000,0.00000,-0.00000,0.34819,-0.08949,-0.64501,-0.31868,101.87870,-0.37123,0.63014,0.00076,-0.00420,0.77647,1,0,
06.29 16:44:00:973,51972,0.05410,-0.07416,9.80332,0.00000,0.00000,-0.00000,0.34669,-0.08954,-0.64303,-0.31876,101.87892,-0.37207,0.63014,0.00077,-0.00421,0.77647,1,0,
06.29 16:44:00:985,51973,0.06734,-0.06448,9.79486,0.00000,0.00000,-0.00000,0.34967,-0.09053,-0.64301,-0.31990,101.87859,-0.37216,0.63014,0.00076,-0.00421,0.77647,1,0,
06.29 16:44:00:993,51974,0.05814,-0.04314,9.79593,0.00000,0.00000,-0.00000,0.34768,-0.09103,-0.64303,-0.31977,101.87772,-0.37220,0.63015,0.00076,-0.00421,0.77646,1,0,
06.29 16:44:01:003,51975,0.06398,-0.05241,9.81236,0.00000,0.00000,-0.00000,0.34917,-0.09005,-0.64202,-0.32083,101.87751,-0.37164,0.63015,0.00075,-0.00422,0.77646,1,0,
06.29 16:44:01:013,51976,0.03464,-0.05220,9.78661,0.00000,0.00000,-0.00000,0.34966,-0.09155,-0.64202,-0.32000,101.87773,-0.37092,0.63015,0.00075,-0.00421,0.77646,1,0,
06.29 16:44:01:022,51977,0.04755,-0.06604,9.81398,0.00000,0.00000,-0.00000,0.34668,-0.09159,-0.64055,-0.32047,101.87783,-0.37111,0.63015,0.00075,-0.00421,0.77646,1,0,
06.29 16:44:01:031,51978,0.06667,-0.06196,9.78825,0.00000,0.00000,-0.00000,0.34670,-0.09201,-0.64453,-0.31853,101.87727,-0.37083,0.63015,0.00076,-0.00420,0.77646,1,0,
06.29 16:44:01:045,51979,0.08404,-0.05534,9.80945,0.00000,0.00000,-0.00000,0.34770,-0.09199,-0.64502,-0.31585,101.87696,-0.37073,0.63016,0.00078,-0.00418,0.77646,1,0,
06.29 16:44:01:053,51980,0.05516,-0.05969,9.77087,0.00000,0.00000,-0.00000,0.34915,-0.09063,-0.63804,-0.31627,101.87759,-0.37066,0.63015,0.00077,-0.00418,0.77646,1,0,
06.29 16:44:01:062,51981,0.04243,-0.05836,9.81009,0.00000,0.00000,-0.00000,0.34819,-0.08950,-0.64451,-0.31574,101.87813,-0.37078,0.63015,0.00078,-0.00418,0.77646,1,0,
06.29 16:44:01:073,51982,0.07654,-0.06241,9.78889,0.00000,0.00000,-0.00000,0.34865,-0.08962,-0.63854,-0.31815,101.87798,-0.37120,0.63015,0.00077,-0.00420,0.77646,1,0,
06.29 16:44:01:082,51983,0.06715,-0.05078,9.79765,0.00000,0.00000,-0.00000,0.34768,-0.09004,-0.64302,-0.31802,101.87770,-0.37104,0.63015,0.00077,-0.00420,0.77646,1,0,
06.29 16:44:01:093,51984,0.07107,-0.04382,9.80806,0.00000,0.00000,-0.00000,0.34718,-0.09106,-0.64204,-0.31798,101.87728,-0.37110,0.63015,0.00077,-0.00420,0.77646,1,0,
06.29 16:44:01:103,51985,0.07005,-0.06640,9.78663,0.00000,0.00000,-0.00000,0.34917,-0.09105,-0.64202,-0.31819,101.87697,-0.37052,0.63016,0.00076,-0.00419,0.77646,1,0,
06.29 16:44:01:112,51986,0.05992,-0.06397,9.80065,0.00000,0.00000,-0.00000,0.34769,-0.08952,-0.64402,-0.31867,101.87818,-0.37127,0.63015,0.00076,-0.00420,0.77646,1,0,
06.29 16:44:01:122,51987,0.07453,-0.05105,9.78232,0.00000,0.00000,-0.00000,0.34667,-0.09212,-0.63906,-0.31571,101.87675,-0.36967,0.63016,0.00077,-0.00417,0.77646,1,0,
06.29 16:44:01:132,51988,0.05795,-0.05783,9.79061,0.00000,0.00000,-0.00000,0.34866,-0.09109,-0.64003,-0.31663,101.87724,-0.36930,0.63015,0.00076,-0.00418,0.77646,1,0,
06.29 16:44:01:143,51989,0.07618,-0.05916,9.78150,0.00000,0.00000,-0.00000,0.34818,-0.09052,-0.64352,-0.31787,101.87757,-0.36979,0.63015,0.00076,-0.00419,0.77646,1,0,
06.29 16:44:01:152,51990,0.05987,-0.06206,9.79893,0.00000,0.00000,-0.00000,0.34967,-0.09253,-0.64302,-0.31621,101.87653,-0.37024,0.63016,0.00077,-0.00418,0.77645,1,0,
06.29 16:44:01:163,51991,0.04779,-0.05664,9.80301,0.00000,0.00000,-0.00000,0.34965,-0.09209,-0.64003,-0.31643,101.87721,-0.37040,0.63015,0.00077,-0.00418,0.77646,1,0,
06.29 16:44:01:173,51992,0.05483,-0.05436,9.79939,0.00000,0.00000,-0.00000,0.34916,-0.09058,-0.64053,-0.31545,101.87738,-0.36986,0.63015,0.00077,-0.00417,0.77646,1,0,
06.29 16:44:01:182,51993,0.06385,-0.06714,9.78117,0.00000,0.00000,-0.00000,0.34918,-0.09052,-0.64351,-0.31545,101.87749,-0.37091,0.63015,0.00078,-0.00418,0.77646,1,0,
06.29 16:44:01:192,51994,0.08066,-0.04442,9.79428,0.00000,0.00000,-0.00000,0.34568,-0.09062,-0.63906,-0.31521,101.87681,-0.37105,0.63016,0.00078,-0.00418,0.77646,1,0,
06.29 16:44:01:203,51995,0.06380,-0.06922,9.80189,0.00000,0.00000,-0.00000,0.34918,-0.09302,-0.64352,-0.31514,101.87657,-0.37069,0.63016,0.00078,-0.00417,0.77645,1,0,
06.29 16:44:01:213,51996,0.07614,-0.07781,9.79924,0.00000,0.00000,-0.00000,0.34668,-0.08908,-0.64104,-0.31497,101.87648,-0.37032,0.63016,0.00078,-0.00417,0.77645,1,0,
06.29 16:44:01:222,51997,0.04604,-0.04924,9.80504,0.00000,0.00000,-0.00000,0.34619,-0.08905,-0.64254,-0.31647,101.87588,-0.37137,0.63016,0.00078,-0.00419,0.77645,1,0,
06.29 16:44:01:232,51998,0.06709,-0.07269,9.79114,0.00000,0.00000,-0.00000,0.35016,-0.08954,-0.64251,-0.31687,101.87515,-0.37171,0.63017,0.00078,-0.00419,0.77645,1,0,
06.29 16:44:01:243,51999,0.07233,-0.05025,9.79572,0.00000,0.00000,-0.00000,0.34719,-0.09154,-0.64303,-0.31545,101.87494,-0.37095,0.63017,0.00078,-0.00418,0.77645,1,0,
06.29 16:44:01:253,52000,0.05162,-0.08026,9.80649,0.00000,0.00000,-0.00000,0.35017,-0.09052,-0.64350,-0.31422,101.87580,-0.37082,0.63016,0.00078,-0.00417,0.77645,1,0,
06.29 16:44:01:262,52001,0.07118,-0.05002,9.78649,0.00000,0.00000,-0.00000,0.34718,-0.09057,-0.64154,-0.31311,101.87479,-0.37101,0.63017,0.00079,-0.00416,0.77645,1,0,
06.29 16:44:01:273,52002,0.05524,-0.05933,9.78627,0.00000,0.00000,-0.00000,0.34767,-0.08911,-0.63954,-0.31186,101.87452,-0.36992,0.63017,0.00079,-0.00415,0.77644,1,0,
06.29 16:44:01:282,52003,0.05377,-0.05354,9.79586,0.00000,0.00000,-0.00000,0.34718,-0.08956,-0.64203,-0.31222,101.87457,-0.36876,0.63017,0.00078,-0.00414,0.77644,1,0,
06.29 16:44:01:293,52004,0.03870,-0.04481,9.79681,0.00000,0.00000,-0.00000,0.34667,-0.09061,-0.63955,-0.31237,101.87424,-0.36878,0.63017,0.00078,-0.00414,0.77644,1,0,
06.29 16:44:01:302,52005,0.07014,-0.06201,9.80594,0.00000,0.00000,-0.00000,0.34719,-0.09253,-0.64304,-0.31336,101.87483,-0.36914,0.63017,0.00078,-0.00415,0.77645,1,0,
06.29 16:44:01:313,52006,0.06459,-0.03706,9.78813,0.00000,0.00000,-0.00000,0.34719,-0.09303,-0.64304,-0.31317,101.87502,-0.36932,0.63017,0.00078,-0.00415,0.77645,1,0,
06.29 16:44:01:323,52007,0.07169,-0.05376,9.80697,0.00000,0.00000,-0.00000,0.34718,-0.09106,-0.64204,-0.31294,101.87535,-0.36929,0.63017,0.00078,-0.00415,0.77645,1,0,
06.29 16:44:01:333,52008,0.05009,-0.06493,9.80511,0.00000,0.00000,-0.00000,0.34967,-0.09004,-0.64251,-0.31449,101.87592,-0.36950,0.63016,0.00077,-0.00416,0.77645,1,0,
06.29 16:44:01:341,52009,0.06654,-0.06228,9.79386,0.00000,0.00000,-0.00000,0.35016,-0.09105,-0.64201,-0.31287,101.87564,-0.36896,0.63016,0.00078,-0.00415,0.77645,1,0,
06.29 16:44:01:353,52010,0.06191,-0.04848,9.79552,0.00000,0.00000,-0.00000,0.35017,-0.09151,-0.64401,-0.31439,101.87574,-0.36912,0.63016,0.00077,-0.00416,0.77645,1,0,
06.29 16:44:01:362,52011,0.07660,-0.06021,9.79288,0.00000,0.00000,-0.00000,0.34817,-0.08907,-0.64152,-0.31459,101.87628,-0.36961,0.63016,0.00077,-0.00416,0.77645,1,0,
06.29 16:44:01:373,52012,0.06896,-0.05241,9.80592,0.00000,0.00000,-0.00000,0.34817,-0.09207,-0.64104,-0.31338,101.87651,-0.37013,0.63016,0.00078,-0.00416,0.77645,1,0,
06.29 16:44:01:382,52013,0.05693,-0.05014,9.79571,0.00000,0.00000,-0.00000,0.34916,-0.09107,-0.64103,-0.31434,101.87669,-0.37090,0.63016,0.00078,-0.00417,0.77646,1,0,
06.29 16:44:01:393,52014,0.04659,-0.04138,9.79373,0.00000,0.00000,-0.00000,0.34667,-0.09111,-0.63955,-0.31597,101.87643,-0.37055,0.63016,0.00077,-0.00418,0.77645,1,0,
06.29 16:44:01:403,52015,0.06744,-0.06031,9.79826,0.00000,0.00000,-0.00000,0.35016,-0.09404,-0.64202,-0.31480,101.87684,-0.37132,0.63016,0.00078,-0.00417,0.77646,1,0,
06.29 16:44:01:413,52016,0.06813,-0.03269,9.79402,0.00000,0.00000,-0.00000,0.34669,-0.08953,-0.64353,-0.31457,101.87706,-0.37215,0.63016,0.00079,-0.00418,0.77646,1,0,
06.29 16:44:01:422,52017,0.05437,-0.05801,9.80449,0.00000,0.00000,-0.00000,0.34817,-0.09006,-0.64153,-0.31403,101.87695,-0.37191,0.63016,0.00079,-0.00417,0.77646,1,0,
06.29 16:44:01:432,52018,0.05604,-0.06504,9.80346,0.00000,0.00000,-0.00000,0.35016,-0.08955,-0.64201,-0.31430,101.87741,-0.37145,0.63015,0.00079,-0.00417,0.77646,1,0,
06.29 16:44:01:443,52019,0.05570,-0.04689,9.79164,0.00000,0.00000,-0.00000,0.34718,-0.09106,-0.64204,-0.31548,101.87813,-0.37075,0.63015,0.00078,-0.00418,0.77646,1,0,
06.29 16:44:01:452,52020,0.05762,-0.06302,9.79972,0.00000,0.00000,-0.00000,0.34768,-0.09154,-0.64253,-0.31599,101.87701,-0.37171,0.63016,0.00078,-0.00419,0.77646,1,0,
06.29 16:44:01:462,52021,0.05124,-0.04996,9.78263,0.00000,0.00000,-0.00000,0.34768,-0.09054,-0.64253,-0.31424,101.87637,-0.37274,0.63016,0.00080,-0.00418,0.77645,1,0,
06.29 16:44:01:473,52022,0.08596,-0.06208,9.79252,0.00000,0.00000,-0.00000,0.34867,-0.09054,-0.64252,-0.31463,101.87599,-0.37294,0.63016,0.00080,-0.00418,0.77645,1,0,
06.29 16:44:01:482,52023,0.05635,-0.05610,9.78365,0.00000,0.00000,-0.00000,0.34619,-0.09106,-0.64205,-0.31248,101.87548,-0.37359,0.63017,0.00081,-0.00417,0.77645,1,0,
06.29 16:44:01:493,52024,0.07181,-0.04068,9.79481,0.00000,0.00000,-0.00000,0.34618,-0.09058,-0.64105,-0.31451,101.87592,-0.37422,0.63016,0.00081,-0.00419,0.77645,1,0,
06.29 16:44:01:500,52025,0.08946,-0.06397,9.80494,0.00000,0.00000,-0.00000,0.35018,-0.09099,-0.64500,-0.31664,101.87553,-0.37399,0.63017,0.00079,-0.00420,0.77645,1,0,
06.29 16:44:01:512,52026,0.07346,-0.06935,9.78739,0.00000,0.00000,-0.00000,0.34917,-0.09103,-0.64302,-0.31359,101.87460,-0.37464,0.63017,0.00081,-0.00419,0.77644,1,0,
06.29 16:44:01:522,52027,0.06188,-0.05315,9.80663,0.00000,0.00000,-0.00000,0.34918,-0.08902,-0.64351,-0.31444,101.87500,-0.37437,0.63017,0.00081,-0.00419,0.77645,1,0,
06.29 16:44:01:532,52028,0.05831,-0.04214,9.78580,0.00000,0.00000,-0.00000,0.34570,-0.08955,-0.64254,-0.31530,101.87488,-0.37422,0.63017,0.00080,-0.00419,0.77645,1,0,
06.29 16:44:01:543,52029,0.04172,-0.04025,9.79457,0.00000,0.00000,-0.00000,0.34767,-0.09009,-0.64054,-0.31417,101.87496,-0.37421,0.63017,0.00081,-0.00419,0.77645,1,0,
06.29 16:44:01:553,52030,0.06314,-0.05452,9.78742,0.00000,0.00000,-0.00000,0.34669,-0.09053,-0.64353,-0.31543,101.87524,-0.37494,0.63017,0.00081,-0.00420,0.77645,1,0,
06.29 16:44:01:562,52031,0.07540,-0.07124,9.78765,0.00000,0.00000,-0.00000,0.34817,-0.09308,-0.64054,-0.31461,101.87481,-0.37549,0.63017,0.00081,-0.00420,0.77645,1,0,
06.29 16:44:01:571,52032,0.07406,-0.07953,9.78611,0.00000,0.00000,-0.00000,0.34867,-0.09056,-0.64153,-0.31375,101.87493,-0.37562,0.63017,0.00082,-0.00419,0.77645,1,0,
06.29 16:44:01:582,52033,0.05911,-0.05922,9.78701,0.00000,0.00000,-0.00000,0.34718,-0.09106,-0.64204,-0.31406,101.87486,-0.37531,0.63017,0.00082,-0.00419,0.77645,1,0,
06.29 16:44:01:593,52034,0.07559,-0.06094,9.80091,0.00000,0.00000,-0.00000,0.34620,-0.09004,-0.64304,-0.31232,101.87518,-0.37559,0.63017,0.00083,-0.00418,0.77645,1,0,
06.29 16:44:01:602,52035,0.08090,-0.06476,9.78773,0.00000,0.00000,-0.00000,0.34867,-0.09054,-0.64252,-0.31371,101.87564,-0.37577,0.63016,0.00082,-0.00419,0.77645,1,0,
06.29 16:44:01:613,52036,0.05441,-0.05843,9.80458,0.00000,0.00000,-0.00000,0.34618,-0.09159,-0.64055,-0.31484,101.87560,-0.37537,0.63016,0.00081,-0.00420,0.77645,1,0,
06.29 16:44:01:622,52037,0.06886,-0.05626,9.79426,0.00000,0.00000,-0.00000,0.34818,-0.09104,-0.64253,-0.31437,101.87552,-0.37554,0.63017,0.00082,-0.00420,0.77645,1,0,
06.29 16:44:01:632,52038,0.06146,-0.05667,9.78379,0.00000,0.00000,-0.00000,0.34917,-0.09054,-0.64252,-0.31536,101.87653,-0.37544,0.63016,0.00081,-0.00420,0.77645,1,0,
06.29 16:44:01:643,52039,0.04381,-0.04818,9.79586,0.00000,0.00000,-0.00000,0.34817,-0.09157,-0.64104,-0.31369,101.87639,-0.37483,0.63016,0.00081,-0.00419,0.77645,1,0,
06.29 16:44:01:652,52040,0.07844,-0.04646,9.78978,0.00000,0.00000,-0.00000,0.34669,-0.09003,-0.64353,-0.31282,101.87566,-0.37593,0.63016,0.00083,-0.00419,0.77645,1,0,
06.29 16:44:01:662,52041,0.06887,-0.05895,9.79638,0.00000,0.00000,-0.00000,0.34818,-0.09055,-0.64203,-0.31414,101.87568,-0.37620,0.63016,0.00082,-0.00420,0.77645,1,0,
06.29 16:44:01:672,52042,0.06429,-0.05876,9.80284,0.00000,0.00000,-0.00000,0.34720,-0.09098,-0.64602,-0.31447,101.87585,-0.37491,0.63016,0.00081,-0.00419,0.77645,1,0,
06.29 16:44:01:683,52043,0.06126,-0.04905,9.78439,0.00000,0.00000,-0.00000,0.34817,-0.09108,-0.64054,-0.31318,101.87547,-0.37496,0.63017,0.00082,-0.00418,0.77645,1,0,
06.29 16:44:01:692,52044,0.07035,-0.06816,9.79216,0.00000,0.00000,-0.00000,0.34965,-0.09011,-0.63903,-0.31449,101.87528,-0.37583,0.63017,0.00082,-0.00420,0.77645,1,0,
06.29 16:44:01:703,52045,0.06080,-0.05548,9.80484,0.00000,0.00000,-0.00000,0.34818,-0.09155,-0.64203,-0.31437,101.87463,-0.37594,0.63017,0.00082,-0.00420,0.77644,1,0,
06.29 16:44:01:713,52046,0.05573,-0.06159,9.80778,0.00000,0.00000,-0.00000,0.34817,-0.09108,-0.64054,-0.31636,101.87506,-0.37623,0.63017,0.00081,-0.00421,0.77645,1,0,
06.29 16:44:01:723,52047,0.07210,-0.05847,9.79707,0.00000,0.00000,-0.00000,0.34967,-0.08952,-0.64350,-0.31584,101.87494,-0.37620,0.63017,0.00081,-0.00421,0.77645,1,0,
06.29 16:44:01:731,52048,0.07310,-0.05769,9.79178,0.00000,0.00000,-0.00000,0.34770,-0.09098,-0.64552,-0.31581,101.87481,-0.37663,0.63017,0.00082,-0.00421,0.77645,1,0,
06.29 16:44:01:741,52049,0.05593,-0.04936,9.79741,0.00000,0.00000,-0.00000,0.34867,-0.09206,-0.64153,-0.31835,101.86873,-0.36075,0.63021,0.00069,-0.00414,0.77641,1,0,
06.29 16:44:01:752,52050,0.05206,-0.05060,9.78849,0.00000,0.00000,-0.00000,0.34868,-0.08850,-0.64450,-0.31693,101.86905,-0.36085,0.63021,0.00070,-0.00413,0.77641,1,0,
06.29 16:44:01:762,52051,0.06936,-0.04691,9.78694,0.00000,0.00000,-0.00000,0.34817,-0.08706,-0.64201,-0.31657,101.86819,-0.36030,0.63022,0.00070,-0.00413,0.77641,1,0,
06.29 16:44:01:772,52052,0.07538,-0.08182,9.79838,0.00000,0.00000,-0.00000,0.34966,-0.09156,-0.64152,-0.31777,101.86792,-0.36079,0.63022,0.00070,-0.00414,0.77641,1,0,
06.29 16:44:01:783,52053,0.07635,-0.08158,9.77731,0.00000,0.00000,-0.00000,0.34819,-0.09100,-0.64452,-0.31781,101.86897,-0.36049,0.63021,0.00069,-0.00414,0.77641,1,0,
06.29 16:44:01:793,52054,0.05910,-0.05397,9.80315,0.00000,0.00000,-0.00000,0.34767,-0.09107,-0.64104,-0.31667,101.86868,-0.36071,0.63021,0.00070,-0.00413,0.77641,1,0,
06.29 16:44:01:802,52055,0.03956,-0.05680,9.78835,0.00000,0.00000,-0.00000,0.34719,-0.08902,-0.64402,-0.31671,101.86958,-0.35945,0.63021,0.00069,-0.00412,0.77642,1,0,
06.29 16:44:01:811,52056,0.06769,-0.05375,9.80358,0.00000,0.00000,-0.00000,0.34768,-0.09156,-0.64154,-0.31696,101.86915,-0.36083,0.63021,0.00070,-0.00413,0.77641,1,0,
06.29 16:44:01:822,52057,0.06144,-0.05144,9.79853,0.00000,0.00000,-0.00000,0.34917,-0.09056,-0.64152,-0.31628,101.87013,-0.36060,0.63020,0.00070,-0.00413,0.77642,1,0,
06.29 16:44:01:832,52058,0.06475,-0.06168,9.80093,0.00000,0.00000,-0.00000,0.34818,-0.09003,-0.64302,-0.31634,101.87029,-0.36156,0.63020,0.00071,-0.00413,0.77642,1,0,
06.29 16:44:01:844,52059,0.07903,-0.06005,9.80673,0.00000,0.00000,-0.00000,0.34867,-0.09205,-0.64203,-0.31420,101.86979,-0.36198,0.63020,0.00072,-0.00412,0.77642,1,0,
06.29 16:44:01:852,52060,0.08014,-0.06840,9.80981,0.00000,0.00000,-0.00000,0.34619,-0.09055,-0.64254,-0.31324,101.87006,-0.36316,0.63020,0.00074,-0.00412,0.77642,1,0,
06.29 16:44:01:863,52061,0.08283,-0.03739,9.77283,0.00000,0.00000,-0.00000,0.34718,-0.09109,-0.64054,-0.31269,101.87000,-0.36328,0.63020,0.00074,-0.00412,0.77642,1,0,
06.29 16:44:01:886,52062,0.05797,-0.07436,9.80165,0.00000,0.00000,-0.00000,0.34619,-0.09108,-0.64105,-0.31298,101.86949,-0.36281,0.63021,0.00074,-0.00412,0.77642,1,0,
06.29 16:44:01:890,52063,0.07594,-0.05949,9.79600,0.00000,0.00000,-0.00000,0.34917,-0.09053,-0.64301,-0.31350,101.87017,-0.36239,0.63020,0.00073,-0.00412,0.77642,1,0,
06.29 16:44:01:893,52064,0.06634,-0.04503,9.79476,0.00000,0.00000,-0.00000,0.34769,-0.09253,-0.64303,-0.31395,101.86991,-0.36172,0.63020,0.00072,-0.00412,0.77642,1,0,
06.29 16:44:01:904,52065,0.04513,-0.05456,9.78472,0.00000,0.00000,-0.00000,0.34619,-0.09155,-0.64254,-0.31386,101.87012,-0.36120,0.63020,0.00072,-0.00411,0.77642,1,0,
06.29 16:44:01:912,52066,0.06130,-0.05190,9.81026,0.00000,0.00000,-0.00000,0.34965,-0.09110,-0.63953,-0.31411,101.87001,-0.36165,0.63020,0.00072,-0.00412,0.77642,1,0,
06.29 16:44:01:923,52067,0.05834,-0.07129,9.78949,0.00000,0.00000,-0.00000,0.34768,-0.09154,-0.64253,-0.31338,101.86898,-0.36264,0.63021,0.00073,-0.00412,0.77641,1,0,
06.29 16:44:01:933,52068,0.07461,-0.06218,9.79497,0.00000,0.00000,-0.00000,0.35066,-0.09105,-0.64201,-0.31356,101.86922,-0.36271,0.63021,0.00073,-0.00412,0.77641,1,0,
06.29 16:44:01:942,52069,0.05470,-0.04978,9.79447,0.00000,0.00000,-0.00000,0.34866,-0.09259,-0.64004,-0.31434,101.86954,-0.36162,0.63021,0.00072,-0.00412,0.77642,1,0,
06.29 16:44:01:953,52070,0.05337,-0.04872,9.79671,0.00000,0.00000,-0.00000,0.34719,-0.09153,-0.64353,-0.31312,101.86895,-0.36128,0.63021,0.00073,-0.00411,0.77641,1,0,
06.29 16:44:01:962,52071,0.07696,-0.05145,9.78663,0.00000,0.00000,-0.00000,0.34768,-0.09104,-0.64253,-0.31251,101.86842,-0.36188,0.63021,0.00073,-0.00411,0.77641,1,0,
06.29 16:44:01:971,52072,0.05577,-0.07658,9.78785,0.00000,0.00000,-0.00000,0.35016,-0.09105,-0.64201,-0.31306,101.86916,-0.36165,0.63021,0.00073,-0.00411,0.77641,1,0,
06.29 16:44:01:983,52073,0.05388,-0.06508,9.80037,0.00000,0.00000,-0.00000,0.34867,-0.09055,-0.64202,-0.31072,101.86907,-0.36117,0.63021,0.00074,-0.00409,0.77641,1,0,
06.29 16:44:01:993,52074,0.06724,-0.06728,9.80160,0.00000,0.00000,-0.00000,0.34719,-0.09155,-0.64254,-0.31201,101.86913,-0.36165,0.63021,0.00073,-0.00410,0.77641,1,0,
06.29 16:44:02:002,52075,0.06569,-0.05212,9.80420,0.00000,0.00000,-0.00000,0.34718,-0.08906,-0.64203,-0.31281,101.86894,-0.36170,0.63021,0.00073,-0.00411,0.77641,1,0,
06.29 16:44:02:012,52076,0.06845,-0.06241,9.79207,0.00000,0.00000,-0.00000,0.34766,-0.09211,-0.63905,-0.31241,101.86922,-0.36266,0.63021,0.00074,-0.00411,0.77642,1,0,
06.29 16:44:02:023,52077,0.05379,-0.05117,9.79545,0.00000,0.00000,-0.00000,0.34520,-0.08956,-0.64205,-0.31423,101.86939,-0.36243,0.63021,0.00073,-0.00412,0.77642,1,0,
06.29 16:44:02:032,52078,0.05458,-0.06616,9.78360,0.00000,0.00000,-0.00000,0.34768,-0.09154,-0.64253,-0.31672,101.86943,-0.36239,0.63021,0.00071,-0.00414,0.77642,1,0,
06.29 16:44:02:043,52079,0.05694,-0.04284,9.79474,0.00000,0.00000,-0.00000,0.34816,-0.09160,-0.63954,-0.31596,101.86953,-0.36331,0.63021,0.00072,-0.00414,0.77642,1,0,
06.29 16:44:02:051,52080,0.06253,-0.05977,9.80554,0.00000,0.00000,-0.00000,0.34817,-0.09158,-0.64054,-0.31453,101.86926,-0.36249,0.63021,0.00073,-0.00412,0.77642,1,0,
06.29 16:44:02:062,52081,0.06169,-0.05853,9.79598,0.00000,0.00000,-0.00000,0.34817,-0.09008,-0.64053,-0.31500,101.86928,-0.36262,0.63021,0.00072,-0.00413,0.77642,1,0,
06.29 16:44:02:073,52082,0.06206,-0.08323,9.79905,0.00000,0.00000,-0.00000,0.34570,-0.09104,-0.64304,-0.31472,101.86973,-0.36246,0.63020,0.00073,-0.00413,0.77642,1,0,
06.29 16:44:02:083,52083,0.06085,-0.05082,9.78386,0.00000,0.00000,-0.00000,0.34619,-0.09056,-0.64204,-0.31576,101.86898,-0.36228,0.63021,0.00072,-0.00413,0.77641,1,0,
06.29 16:44:02:093,52084,0.06322,-0.06211,9.79090,0.00000,0.00000,-0.00000,0.34917,-0.09356,-0.64153,-0.31481,101.86908,-0.36252,0.63021,0.00072,-0.00413,0.77641,1,0,
06.29 16:44:02:103,52085,0.07518,-0.06223,9.79605,0.00000,0.00000,-0.00000,0.34818,-0.09203,-0.64303,-0.31585,101.86895,-0.36144,0.63021,0.00071,-0.00413,0.77641,1,0,
06.29 16:44:02:113,52086,0.07305,-0.05868,9.79304,0.00000,0.00000,-0.00000,0.34817,-0.08858,-0.64102,-0.31634,101.86775,-0.36105,0.63022,0.00071,-0.00413,0.77641,1,0,
06.29 16:44:02:123,52087,0.07129,-0.06305,9.79583,0.00000,0.00000,-0.00000,0.34866,-0.09208,-0.64054,-0.31540,101.86785,-0.35997,0.63022,0.00070,-0.00412,0.77641,1,0,
06.29 16:44:02:131,52088,0.04855,-0.06933,9.79912,0.00000,0.00000,-0.00000,0.34867,-0.09105,-0.64202,-0.31706,101.86861,-0.36036,0.63021,0.00070,-0.00413,0.77641,1,0,
06.29 16:44:02:142,52089,0.05866,-0.05307,9.79466,0.00000,0.00000,-0.00000,0.34868,-0.08951,-0.64401,-0.31810,101.86923,-0.36009,0.63021,0.00069,-0.00414,0.77641,1,0,
06.29 16:44:02:152,52090,0.08451,-0.04273,9.80215,0.00000,0.00000,-0.00000,0.35066,-0.09104,-0.64251,-0.31577,101.86853,-0.36003,0.63021,0.00070,-0.00412,0.77641,1,0,
06.29 16:44:02:163,52091,0.04156,-0.05899,9.79099,0.00000,0.00000,-0.00000,0.34618,-0.09210,-0.64006,-0.31473,101.86911,-0.36055,0.63021,0.00071,-0.00412,0.77641,1,0,
06.29 16:44:02:172,52092,0.05601,-0.07480,9.79762,0.00000,0.00000,-0.00000,0.34767,-0.09207,-0.64104,-0.31463,101.87010,-0.36140,0.63020,0.00072,-0.00412,0.77642,1,0,
06.29 16:44:02:183,52093,0.05101,-0.07953,9.78868,0.00000,0.00000,-0.00000,0.35015,-0.08957,-0.64101,-0.31637,101.87032,-0.36253,0.63020,0.00072,-0.00414,0.77642,1,0,
06.29 16:44:02:192,52094,0.07810,-0.06716,9.79378,0.00000,0.00000,-0.00000,0.34719,-0.09054,-0.64303,-0.31632,101.87080,-0.36195,0.63020,0.00071,-0.00413,0.77642,1,0,
06.29 16:44:02:203,52095,0.06030,-0.06253,9.79722,0.00000,0.00000,-0.00000,0.34670,-0.09352,-0.64354,-0.31529,101.87041,-0.36229,0.63020,0.00072,-0.00413,0.77642,1,0,
06.29 16:44:02:212,52096,0.07188,-0.03176,9.79052,0.00000,0.00000,-0.00000,0.34767,-0.09057,-0.64104,-0.31558,101.87089,-0.36276,0.63020,0.00072,-0.00413,0.77642,1,0,
06.29 16:44:02:223,52097,0.05635,-0.06142,9.79312,0.00000,0.00000,-0.00000,0.34620,-0.09304,-0.64305,-0.31429,101.87081,-0.36290,0.63020,0.00073,-0.00413,0.77642,1,0,
06.29 16:44:02:233,52098,0.08148,-0.05647,9.79421,0.00000,0.00000,-0.00000,0.35016,-0.09204,-0.64251,-0.31350,101.87141,-0.36355,0.63019,0.00074,-0.00412,0.77643,1,0,
06.29 16:44:02:242,52099,0.05589,-0.06751,9.78820,0.00000,0.00000,-0.00000,0.34818,-0.09154,-0.64253,-0.31714,101.87228,-0.36443,0.63019,0.00073,-0.00415,0.77643,1,0,
06.29 16:44:02:254,52100,0.06812,-0.04988,9.79309,0.00000,0.00000,-0.00000,0.34668,-0.09057,-0.64154,-0.31527,101.87202,-0.36394,0.63019,0.00073,-0.00414,0.77643,1,0,
06.29 16:44:02:263,52101,0.05163,-0.06567,9.79152,0.00000,0.00000,-0.00000,0.34966,-0.09058,-0.64052,-0.31369,101.87161,-0.36441,0.63019,0.00074,-0.00413,0.77643,1,0,
06.29 16:44:02:273,52102,0.04709,-0.05476,9.79188,0.00000,0.00000,-0.00000,0.34916,-0.09158,-0.64053,-0.31325,101.87076,-0.36396,0.63020,0.00074,-0.00412,0.77642,1,0,
06.29 16:44:02:283,52103,0.06469,-0.06357,9.77457,0.00000,0.00000,-0.00000,0.34916,-0.09259,-0.64004,-0.31264,101.86909,-0.36481,0.63021,0.00075,-0.00412,0.77641,1,0,
06.29 16:44:02:293,52104,0.05619,-0.05960,9.81054,0.00000,0.00000,-0.00000,0.34867,-0.09154,-0.64252,-0.31412,101.86965,-0.36446,0.63021,0.00074,-0.00413,0.77642,1,0,
06.29 16:44:02:305,52105,0.06080,-0.05991,9.80895,0.00000,0.00000,-0.00000,0.34768,-0.09357,-0.64105,-0.31462,101.87025,-0.36464,0.63020,0.00074,-0.00414,0.77642,1,0,
06.29 16:44:02:313,52106,0.06496,-0.08400,9.80530,0.00000,0.00000,-0.00000,0.34867,-0.09055,-0.64202,-0.31318,101.86961,-0.36475,0.63021,0.00075,-0.00413,0.77642,1,0,
06.29 16:44:02:323,52107,0.06772,-0.05752,9.79836,0.00000,0.00000,-0.00000,0.34520,-0.09104,-0.64305,-0.31200,101.86924,-0.36539,0.63021,0.00076,-0.00412,0.77642,1,0,
06.29 16:44:02:332,52108,0.08228,-0.07592,9.77504,0.00000,0.00000,-0.00000,0.35064,-0.09110,-0.63952,-0.31169,101.86915,-0.36551,0.63021,0.00076,-0.00412,0.77641,1,0,
06.29 16:44:02:345,52109,0.06355,-0.07277,9.78882,0.00000,0.00000,-0.00000,0.34768,-0.08857,-0.64153,-0.31163,101.86950,-0.36501,0.63021,0.00076,-0.00412,0.77642,1,0,
06.29 16:44:02:352,52110,0.07241,-0.05329,9.80077,0.00000,0.00000,-0.00000,0.34819,-0.09199,-0.64502,-0.31259,101.86934,-0.36461,0.63021,0.00075,-0.00412,0.77642,1,0,
06.29 16:44:02:362,52111,0.06397,-0.06971,9.79342,0.00000,0.00000,-0.00000,0.34718,-0.09106,-0.64204,-0.31241,101.87033,-0.36461,0.63020,0.00075,-0.00412,0.77642,1,0,
06.29 16:44:02:372,52112,0.06230,-0.05350,9.79781,0.00000,0.00000,-0.00000,0.34571,-0.09152,-0.64404,-0.31250,101.87003,-0.36404,0.63020,0.00075,-0.00412,0.77642,1,0,
06.29 16:44:02:383,52113,0.05024,-0.06372,9.77555,0.00000,0.00000,-0.00000,0.34817,-0.08906,-0.64202,-0.31276,101.87018,-0.36472,0.63020,0.00075,-0.00412,0.77642,1,0,
06.29 16:44:02:394,52114,0.06423,-0.03647,9.80022,0.00000,0.00000,-0.00000,0.34867,-0.09154,-0.64252,-0.31215,101.87062,-0.36475,0.63020,0.00075,-0.00412,0.77642,1,0,
06.29 16:44:02:403,52115,0.05756,-0.05411,9.80010,0.00000,0.00000,-0.00000,0.34669,-0.09103,-0.64353,-0.31450,101.87151,-0.36416,0.63019,0.00074,-0.00413,0.77643,1,0,
06.29 16:44:02:412,52116,0.05713,-0.06654,9.80899,0.00000,0.00000,-0.00000,0.34817,-0.08907,-0.64152,-0.31468,101.87081,-0.36353,0.63020,0.00073,-0.00413,0.77642,1,0,
06.29 16:44:02:423,52117,0.06578,-0.06003,9.79350,0.00000,0.00000,-0.00000,0.34817,-0.09208,-0.64054,-0.31443,101.86956,-0.36378,0.63021,0.00074,-0.00413,0.77642,1,0,
06.29 16:44:02:433,52118,0.07726,-0.06776,9.79543,0.00000,0.00000,-0.00000,0.34768,-0.09407,-0.64105,-0.31432,101.87013,-0.36404,0.63020,0.00074,-0.00413,0.77642,1,0,
06.29 16:44:02:441,52119,0.08580,-0.05127,9.78706,0.00000,0.00000,-0.00000,0.34768,-0.09104,-0.64253,-0.31417,101.87128,-0.36407,0.63019,0.00074,-0.00413,0.77643,1,0,
06.29 16:44:02:451,52120,0.07239,-0.03602,9.79946,0.00000,0.00000,-0.00000,0.34818,-0.09002,-0.64352,-0.31548,101.87184,-0.36446,0.63019,0.00073,-0.00414,0.77643,1,0,
06.29 16:44:02:462,52121,0.06544,-0.04556,9.80906,0.00000,0.00000,-0.00000,0.34868,-0.08953,-0.64301,-0.31798,101.87330,-0.36430,0.63018,0.00072,-0.00416,0.77644,1,0,
06.29 16:44:02:473,52122,0.06079,-0.04060,9.79824,0.00000,0.00000,-0.00000,0.34570,-0.09003,-0.64354,-0.31634,101.87317,-0.36398,0.63018,0.00073,-0.00415,0.77644,1,0,
06.29 16:44:02:482,52123,0.05050,-0.05462,9.78148,0.00000,0.00000,-0.00000,0.34717,-0.09311,-0.63906,-0.31628,101.87289,-0.36356,0.63018,0.00072,-0.00414,0.77644,1,0,
06.29 16:44:02:492,52124,0.06436,-0.05143,9.79309,0.00000,0.00000,-0.00000,0.34917,-0.09005,-0.64202,-0.31598,101.87261,-0.36321,0.63019,0.00072,-0.00414,0.77643,1,0,
06.29 16:44:02:502,52125,0.04983,-0.07296,9.79748,0.00000,0.00000,-0.00000,0.34718,-0.09158,-0.64104,-0.31724,101.87263,-0.36353,0.63019,0.00072,-0.00415,0.77643,1,0,
06.29 16:44:02:513,52126,0.06296,-0.04358,9.79669,0.00000,0.00000,-0.00000,0.34668,-0.09159,-0.64055,-0.31968,101.87284,-0.36385,0.63018,0.00071,-0.00417,0.77643,1,0,
06.29 16:44:02:522,52127,0.05771,-0.05797,9.79292,0.00000,0.00000,-0.00000,0.34770,-0.09299,-0.64503,-0.31909,101.87350,-0.36426,0.63018,0.00071,-0.00417,0.77644,1,0,
06.29 16:44:02:531,52128,0.06184,-0.05738,9.79736,0.00000,0.00000,-0.00000,0.34668,-0.09057,-0.64154,-0.31987,101.87324,-0.36494,0.63018,0.00071,-0.00417,0.77644,1,0,
06.29 16:44:02:543,52129,0.05710,-0.05300,9.79614,0.00000,0.00000,-0.00000,0.34768,-0.09103,-0.64303,-0.31916,101.87299,-0.36338,0.63018,0.00071,-0.00416,0.77644,1,0,
06.29 16:44:02:552,52130,0.04371,-0.04106,9.80396,0.00000,0.00000,-0.00000,0.34668,-0.09008,-0.64104,-0.31867,101.87258,-0.36414,0.63019,0.00071,-0.00416,0.77643,1,0,
06.29 16:44:02:563,52131,0.08120,-0.05615,9.80182,0.00000,0.00000,-0.00000,0.34967,-0.09052,-0.64351,-0.31953,101.87173,-0.36377,0.63019,0.00071,-0.00417,0.77643,1,0,
06.29 16:44:02:573,52132,0.07438,-0.03467,9.79838,0.00000,0.00000,-0.00000,0.34769,-0.09251,-0.64403,-0.32108,101.87186,-0.36350,0.63019,0.00070,-0.00417,0.77643,1,0,
06.29 16:44:02:582,52133,0.06097,-0.06503,9.80528,0.00000,0.00000,-0.00000,0.34816,-0.09260,-0.63955,-0.31880,101.87092,-0.36320,0.63020,0.00071,-0.00416,0.77642,1,0,
06.29 16:44:02:593,52134,0.05749,-0.06239,9.78999,0.00000,0.00000,-0.00000,0.34917,-0.09155,-0.64202,-0.31954,101.87189,-0.36323,0.63019,0.00070,-0.00416,0.77643,1,0,
06.29 16:44:02:600,52135,0.05510,-0.06658,9.79574,0.00000,0.00000,-0.00000,0.34668,-0.09107,-0.64154,-0.31958,101.87193,-0.36257,0.63019,0.00070,-0.00416,0.77643,1,0,
06.29 16:44:02:612,52136,0.07705,-0.06931,9.79877,0.00000,0.00000,-0.00000,0.35016,-0.09105,-0.64201,-0.31996,101.87244,-0.36311,0.63019,0.00070,-0.00416,0.77643,1,0,
06.29 16:44:02:622,52137,0.06204,-0.06751,9.78646,0.00000,0.00000,-0.00000,0.34768,-0.09004,-0.64302,-0.32028,101.87319,-0.36265,0.63018,0.00070,-0.00416,0.77644,1,0,
06.29 16:44:02:632,52138,0.07074,-0.04262,9.80511,0.00000,0.00000,-0.00000,0.34867,-0.09107,-0.64103,-0.31994,101.87321,-0.36303,0.63018,0.00070,-0.00416,0.77644,1,0,
06.29 16:44:02:643,52139,0.06807,-0.05664,9.78634,0.00000,0.00000,-0.00000,0.34619,-0.09105,-0.64254,-0.31862,101.87264,-0.36335,0.63018,0.00071,-0.00416,0.77643,1,0,
06.29 16:44:02:652,52140,0.08753,-0.06417,9.80172,0.00000,0.00000,-0.00000,0.34966,-0.09207,-0.64103,-0.32013,101.87228,-0.36443,0.63019,0.00071,-0.00417,0.77643,1,0,
06.29 16:44:02:662,52141,0.05305,-0.06553,9.79247,0.00000,0.00000,-0.00000,0.34768,-0.08957,-0.64153,-0.32053,101.87264,-0.36362,0.63018,0.00070,-0.00417,0.77643,1,0,
06.29 16:44:02:673,52142,0.05037,-0.05998,9.79047,0.00000,0.00000,-0.00000,0.34669,-0.09155,-0.64254,-0.32078,101.87323,-0.36406,0.63018,0.00070,-0.00418,0.77644,1,0,
06.29 16:44:02:682,52143,0.04869,-0.06409,9.79600,0.00000,0.00000,-0.00000,0.34768,-0.09054,-0.64253,-0.32246,101.87328,-0.36433,0.63018,0.00070,-0.00419,0.77644,1,0,
06.29 16:44:02:693,52144,0.04265,-0.05398,9.80237,0.00000,0.00000,-0.00000,0.34521,-0.09150,-0.64504,-0.32109,101.87235,-0.36469,0.63019,0.00071,-0.00418,0.77643,1,0,
06.29 16:44:02:703,52145,0.06345,-0.03900,9.79455,0.00000,0.00000,-0.00000,0.34817,-0.09106,-0.64153,-0.32095,101.87242,-0.36497,0.63019,0.00071,-0.00418,0.77643,1,0,
06.29 16:44:02:712,52146,0.05940,-0.05614,9.78472,0.00000,0.00000,-0.00000,0.34916,-0.08856,-0.64151,-0.32307,101.87284,-0.36600,0.63018,0.00070,-0.00420,0.77643,1,0,
06.29 16:44:02:722,52147,0.06724,-0.07113,9.79288,0.00000,0.00000,-0.00000,0.34868,-0.09053,-0.64302,-0.32303,101.87206,-0.36574,0.63019,0.00070,-0.00420,0.77643,1,0,
06.29 16:44:02:733,52148,0.06600,-0.05165,9.79287,0.00000,0.00000,-0.00000,0.34817,-0.09106,-0.64153,-0.32368,101.87231,-0.36541,0.63019,0.00070,-0.00420,0.77643,1,0,
06.29 16:44:02:743,52149,0.07046,-0.06352,9.79078,0.00000,0.00000,-0.00000,0.34569,-0.08906,-0.64204,-0.32327,101.87316,-0.36486,0.63018,0.00069,-0.00420,0.77644,1,0,
06.29 16:44:02:752,52150,0.05946,-0.06826,9.79188,0.00000,0.00000,-0.00000,0.34817,-0.09156,-0.64153,-0.32140,101.87276,-0.36577,0.63018,0.00071,-0.00419,0.77643,1,0,
06.29 16:44:02:762,52151,0.04895,-0.05134,9.79910,0.00000,0.00000,-0.00000,0.34669,-0.09005,-0.64253,-0.32096,101.87381,-0.36588,0.63018,0.00071,-0.00419,0.77644,1,0,
06.29 16:44:02:773,52152,0.06199,-0.04487,9.79617,0.00000,0.00000,-0.00000,0.35017,-0.09151,-0.64401,-0.31996,101.87395,-0.36575,0.63018,0.00072,-0.00418,0.77644,1,0,
06.29 16:44:02:782,52153,0.04784,-0.06677,9.79352,0.00000,0.00000,-0.00000,0.34719,-0.09153,-0.64353,-0.31968,101.87431,-0.36473,0.63017,0.00071,-0.00417,0.77644,1,0,
06.29 16:44:02:793,52154,0.05408,-0.04519,9.80046,0.00000,0.00000,-0.00000,0.34769,-0.08953,-0.64352,-0.32134,101.87582,-0.36554,0.63016,0.00071,-0.00419,0.77645,1,0,
06.29 16:44:02:803,52155,0.06170,-0.06636,9.79507,0.00000,0.00000,-0.00000,0.34619,-0.09156,-0.64205,-0.32078,101.87529,-0.36472,0.63017,0.00071,-0.00418,0.77645,1,0,
06.29 16:44:02:812,52156,0.05695,-0.06923,9.79540,0.00000,0.00000,-0.00000,0.34819,-0.08899,-0.64501,-0.32228,101.87495,-0.36556,0.63017,0.00070,-0.00419,0.77645,1,0,
06.29 16:44:02:822,52157,0.08040,-0.05475,9.79448,0.00000,0.00000,-0.00000,0.34521,-0.09101,-0.64454,-0.32283,101.87540,-0.36572,0.63017,0.00070,-0.00420,0.77645,1,0,
06.29 16:44:02:833,52158,0.05329,-0.05309,9.80046,0.00000,0.00000,-0.00000,0.34817,-0.09206,-0.64153,-0.32138,101.87441,-0.36612,0.63017,0.00071,-0.00419,0.77644,1,0,
06.29 16:44:02:841,52159,0.05569,-0.05459,9.80484,0.00000,0.00000,-0.00000,0.34570,-0.09054,-0.64304,-0.31985,101.87423,-0.36698,0.63017,0.00073,-0.00419,0.77644,1,0,
06.29 16:44:02:852,52160,0.08209,-0.06851,9.79440,0.00000,0.00000,-0.00000,0.34620,-0.09151,-0.64453,-0.32051,101.87444,-0.36710,0.63017,0.00072,-0.00419,0.77644,1,0,
06.29 16:44:02:863,52161,0.05130,-0.04673,9.80795,0.00000,0.00000,-0.00000,0.34918,-0.08951,-0.64401,-0.31931,101.87429,-0.36617,0.63017,0.00073,-0.00418,0.77644,1,0,
06.29 16:44:02:873,52162,0.04872,-0.06079,9.79805,0.00000,0.00000,-0.00000,0.34868,-0.09103,-0.64302,-0.32006,101.87382,-0.36627,0.63018,0.00072,-0.00418,0.77644,1,0,
06.29 16:44:02:882,52163,0.06020,-0.05697,9.78883,0.00000,0.00000,-0.00000,0.35017,-0.09050,-0.64450,-0.32149,101.87473,-0.36660,0.63017,0.00072,-0.00419,0.77644,1,0,
06.29 16:44:02:893,52164,0.05984,-0.05721,9.80203,0.00000,0.00000,-0.00000,0.34967,-0.09002,-0.64351,-0.32026,101.87399,-0.36674,0.63018,0.00072,-0.00419,0.77644,1,0,
06.29 16:44:02:903,52165,0.06081,-0.06553,9.78949,0.00000,0.00000,-0.00000,0.34817,-0.08806,-0.64202,-0.32077,101.87404,-0.36652,0.63018,0.00072,-0.00419,0.77644,1,0,
06.29 16:44:02:912,52166,0.06189,-0.06202,9.79555,0.00000,0.00000,-0.00000,0.34621,-0.08950,-0.64503,-0.32020,101.87336,-0.36732,0.63018,0.00073,-0.00419,0.77644,1,0,
06.29 16:44:02:922,52167,0.05650,-0.06444,9.79002,0.00000,0.00000,-0.00000,0.35067,-0.09000,-0.64449,-0.32087,101.87407,-0.36739,0.63018,0.00072,-0.00419,0.77644,1,0,
06.29 16:44:02:932,52168,0.06697,-0.06573,9.78768,0.00000,0.00000,-0.00000,0.34967,-0.09104,-0.64251,-0.32361,101.87466,-0.36756,0.63017,0.00071,-0.00421,0.77644,1,0,
06.29 16:44:02:943,52169,0.05717,-0.09176,9.79996,0.00000,0.00000,-0.00000,0.34521,-0.08903,-0.64354,-0.32361,101.87484,-0.36746,0.63017,0.00071,-0.00421,0.77645,1,0,
06.29 16:44:02:952,52170,0.06923,-0.06046,9.78124,0.00000,0.00000,-0.00000,0.34719,-0.08903,-0.64352,-0.32223,101.87358,-0.36927,0.63018,0.00073,-0.00421,0.77644,1,0,
06.29 16:44:02:962,52171,0.04954,-0.05918,9.79688,0.00000,0.00000,-0.00000,0.34669,-0.09153,-0.64354,-0.32317,101.87360,-0.36982,0.63018,0.00073,-0.00422,0.77644,1,0,
06.29 16:44:02:973,52172,0.06239,-0.07134,9.79903,0.00000,0.00000,-0.00000,0.34718,-0.09056,-0.64204,-0.32179,101.87263,-0.36946,0.63019,0.00073,-0.00421,0.77643,1,0,
06.29 16:44:02:982,52173,0.05738,-0.04603,9.80060,0.00000,0.00000,-0.00000,0.34967,-0.09054,-0.64251,-0.32422,101.87362,-0.36933,0.63018,0.00072,-0.00423,0.77644,1,0,
06.29 16:44:02:992,52174,0.05816,-0.04420,9.80325,0.00000,0.00000,-0.00000,0.34669,-0.08953,-0.64353,-0.32439,101.87333,-0.36926,0.63018,0.00072,-0.00423,0.77644,1,0,
06.29 16:44:03:001,52175,0.05761,-0.05854,9.80906,0.00000,0.00000,-0.00000,0.35065,-0.09057,-0.64101,-0.32504,101.87315,-0.36955,0.63018,0.00072,-0.00423,0.77644,1,0,
06.29 16:44:03:013,52176,0.06471,-0.05400,9.79018,0.00000,0.00000,-0.00000,0.34967,-0.09102,-0.64351,-0.32515,101.87282,-0.36977,0.63018,0.00072,-0.00424,0.77643,1,0,
06.29 16:44:03:022,52177,0.09986,-0.05278,9.80070,0.00000,0.00000,-0.00000,0.34720,-0.09150,-0.64453,-0.32318,101.87259,-0.36949,0.63019,0.00073,-0.00422,0.77643,1,0,
06.29 16:44:03:033,52178,0.07376,-0.05568,9.77447,0.00000,0.00000,-0.00000,0.34917,-0.09003,-0.64301,-0.32288,101.87322,-0.37010,0.63018,0.00073,-0.00422,0.77644,1,0,
06.29 16:44:03:042,52179,0.05389,-0.04982,9.79531,0.00000,0.00000,-0.00000,0.34869,-0.09200,-0.64452,-0.32333,101.87315,-0.36922,0.63018,0.00072,-0.00422,0.77644,1,0,
06.29 16:44:03:053,52180,0.06676,-0.06669,9.80027,0.00000,0.00000,-0.00000,0.34817,-0.08956,-0.64153,-0.32169,101.87303,-0.37015,0.63018,0.00074,-0.00422,0.77644,1,0,
06.29 16:44:03:062,52181,0.07643,-0.04716,9.79865,0.00000,0.00000,-0.00000,0.35017,-0.09153,-0.64301,-0.32105,101.87288,-0.36927,0.63018,0.00074,-0.00421,0.77643,1,0,
06.29 16:44:03:072,52182,0.04430,-0.05235,9.79810,0.00000,0.00000,-0.00000,0.34917,-0.09056,-0.64152,-0.32173,101.87434,-0.36869,0.63017,0.00073,-0.00421,0.77644,1,0,
06.29 16:44:03:081,52183,0.06899,-0.07143,9.79562,0.00000,0.00000,-0.00000,0.34719,-0.08803,-0.64352,-0.32117,101.87344,-0.36860,0.63018,0.00073,-0.00420,0.77644,1,0,
06.29 16:44:03:092,52184,0.05970,-0.04415,9.79621,0.00000,0.00000,-0.00000,0.34818,-0.09202,-0.64353,-0.32356,101.87256,-0.36841,0.63019,0.00072,-0.00422,0.77643,1,0,
06.29 16:44:03:102,52185,0.06792,-0.04992,9.79750,0.00000,0.00000,-0.00000,0.34867,-0.09054,-0.64252,-0.32517,101.87393,-0.36899,0.63018,0.00071,-0.00423,0.77644,1,0,
06.29 16:44:03:113,52186,0.05253,-0.05311,9.79810,0.00000,0.00000,-0.00000,0.34966,-0.08955,-0.64201,-0.32624,101.87307,-0.36828,0.63018,0.00070,-0.00424,0.77644,1,0,
06.29 16:44:03:122,52187,0.09327,-0.06282,9.79824,0.00000,0.00000,-0.00000,0.34720,-0.09101,-0.64453,-0.32651,101.87270,-0.36871,0.63018,0.00070,-0.00424,0.77643,1,0,
06.29 16:44:03:132,52188,0.07525,-0.05921,9.80739,0.00000,0.00000,-0.00000,0.34918,-0.08949,-0.64500,-0.32686,101.87298,-0.36890,0.63018,0.00070,-0.00424,0.77644,1,0,
06.29 16:44:03:143,52189,0.06920,-0.04622,9.78637,0.00000,0.00000,-0.00000,0.34918,-0.09052,-0.64351,-0.32834,101.87444,-0.36898,0.63017,0.00069,-0.00425,0.77644,1,0,
06.29 16:44:03:151,52190,0.06923,-0.05266,9.79939,0.00000,0.00000,-0.00000,0.34820,-0.09096,-0.64651,-0.32931,101.87431,-0.36919,0.63017,0.00069,-0.00426,0.77644,1,0,
06.29 16:44:03:162,52191,0.05922,-0.05631,9.81314,0.00000,0.00000,-0.00000,0.34768,-0.08906,-0.64203,-0.32971,101.87488,-0.36998,0.63017,0.00069,-0.00427,0.77645,1,0,
06.29 16:44:03:173,52192,0.06356,-0.06225,9.79905,0.00000,0.00000,-0.00000,0.34869,-0.08999,-0.64501,-0.32888,101.87427,-0.36893,0.63017,0.00069,-0.00426,0.77644,1,0,
06.29 16:44:03:183,52193,0.04042,-0.06541,9.80108,0.00000,0.00000,-0.00000,0.34868,-0.08953,-0.64301,-0.33028,101.87437,-0.36871,0.63017,0.00068,-0.00427,0.77644,1,0,
06.29 16:44:03:193,52194,0.06106,-0.05542,9.78808,0.00000,0.00000,-0.00000,0.34719,-0.09055,-0.64253,-0.33039,101.87437,-0.36896,0.63017,0.00068,-0.00427,0.77644,1,0,
06.29 16:44:03:202,52195,0.08263,-0.05317,9.80697,0.00000,0.00000,-0.00000,0.34818,-0.08952,-0.64352,-0.33226,101.87466,-0.36991,0.63017,0.00068,-0.00429,0.77644,1,0,
06.29 16:44:03:213,52196,0.05370,-0.04839,9.79585,0.00000,0.00000,-0.00000,0.34819,-0.09100,-0.64452,-0.33369,101.87515,-0.36965,0.63017,0.00067,-0.00429,0.77645,1,0,
06.29 16:44:03:222,52197,0.05055,-0.04733,9.79712,0.00000,0.00000,-0.00000,0.34619,-0.09057,-0.64155,-0.33205,101.87485,-0.36954,0.63017,0.00068,-0.00428,0.77645,1,0,
06.29 16:44:03:232,52198,0.05661,-0.05491,9.78470,0.00000,0.00000,-0.00000,0.35067,-0.08951,-0.64399,-0.33228,101.87522,-0.36941,0.63017,0.00068,-0.00428,0.77645,1,0,
06.29 16:44:03:241,52199,0.06464,-0.05949,9.80563,0.00000,0.00000,-0.00000,0.34916,-0.09157,-0.64103,-0.33243,101.87391,-0.36985,0.63018,0.00068,-0.00429,0.77644,1,0,
06.29 16:44:03:253,52200,0.07485,-0.06458,9.79452,0.00000,0.00000,-0.00000,0.34916,-0.09107,-0.64103,-0.33181,101.87443,-0.37018,0.63017,0.00068,-0.00428,0.77644,1,0,
06.29 16:44:03:263,52201,0.07747,-0.04330,9.78761,0.00000,0.00000,-0.00000,0.34820,-0.09096,-0.64651,-0.33054,101.87421,-0.36953,0.63017,0.00069,-0.00427,0.77644,1,0,
06.29 16:44:03:272,52202,0.07005,-0.04349,9.78556,0.00000,0.00000,-0.00000,0.34818,-0.08953,-0.64302,-0.32950,101.87392,-0.37046,0.63018,0.00070,-0.00427,0.77644,1,0,
06.29 16:44:03:283,52203,0.05564,-0.07091,9.79912,0.00000,0.00000,-0.00000,0.34918,-0.09151,-0.64401,-0.32993,101.87508,-0.37157,0.63017,0.00070,-0.00428,0.77645,1,0,
06.29 16:44:03:293,52204,0.06380,-0.06536,9.79228,0.00000,0.00000,-0.00000,0.34620,-0.09053,-0.64354,-0.33126,101.87561,-0.37032,0.63016,0.00069,-0.00428,0.77645,1,0,
06.29 16:44:03:303,52205,0.07524,-0.04970,9.80272,0.00000,0.00000,-0.00000,0.35017,-0.09102,-0.64351,-0.33093,101.87478,-0.37031,0.63017,0.00069,-0.00428,0.77644,1,0,
06.29 16:44:03:311,52206,0.07303,-0.04344,9.79497,0.00000,0.00000,-0.00000,0.34719,-0.09104,-0.64303,-0.33076,101.87437,-0.37078,0.63017,0.00069,-0.00428,0.77644,1,0,
06.29 16:44:03:322,52207,0.04852,-0.06738,9.80704,0.00000,0.00000,-0.00000,0.34669,-0.09255,-0.64254,-0.33029,101.87415,-0.37116,0.63017,0.00070,-0.00428,0.77644,1,0,
06.29 16:44:03:333,52208,0.07307,-0.06127,9.78763,0.00000,0.00000,-0.00000,0.34769,-0.08802,-0.64401,-0.32871,101.87300,-0.37106,0.63018,0.00071,-0.00427,0.77643,1,0,
06.29 16:44:03:342,52209,0.06465,-0.05201,9.79004,0.00000,0.00000,-0.00000,0.34867,-0.09055,-0.64202,-0.32942,101.87179,-0.37101,0.63019,0.00070,-0.00427,0.77643,1,0,
06.29 16:44:03:353,52210,0.06818,-0.06071,9.80058,0.00000,0.00000,-0.00000,0.34966,-0.09055,-0.64202,-0.32856,101.87096,-0.37178,0.63020,0.00071,-0.00427,0.77642,1,0,
06.29 16:44:03:362,52211,0.04922,-0.06474,9.79545,0.00000,0.00000,-0.00000,0.34570,-0.09005,-0.64254,-0.32819,101.87024,-0.37233,0.63020,0.00072,-0.00427,0.77642,1,0,
