Time,Counter,ax,ay,az,gx,gy,gz,mx,my,mz,roll,yaw,pitch,q0,q1,q2,q3,Rest,Mag Disturbance,
06.29 17:04:08:176,41616,0.05201,-0.06827,9.77345,0.00000,0.00000,162330980637426346277188182999040.00000,0.37617,-0.15713,-0.58132,-0.54338,115.43800,-0.20510,0.53407,-0.00102,-0.00496,0.84542,1,1,
06.29 17:04:08:176,41617,0.04099,-0.09810,9.81333,0.00000,0.00000,162330980637426346277188182999040.00000,0.37717,-0.15561,-0.58230,-0.54466,115.43700,-0.20551,0.53408,-0.00102,-0.00498,0.84542,1,1,
06.29 17:04:08:177,41618,0.04444,-0.07965,9.80075,0.00000,0.00000,162330980637426346277188182999040.00000,0.37864,-0.15414,-0.58029,-0.54438,115.43723,-0.20468,0.53408,-0.00103,-0.00497,0.84542,1,1,
06.29 17:04:08:189,41619,0.00425,-0.08078,9.80520,0.00000,0.00000,-0.00000,0.37815,-0.15514,-0.58030,-0.54552,115.43705,-0.20423,0.53408,-0.00104,-0.00498,0.84542,1,0,
06.29 17:04:08:190,41620,0.03070,-0.07968,9.79054,0.00000,0.00000,-0.00000,0.37617,-0.15562,-0.58181,-0.54554,115.43831,-0.20464,0.53407,-0.00103,-0.00498,0.84542,1,0,
06.29 17:04:08:195,41621,0.04934,-0.08489,9.78756,0.00000,0.00000,-0.00000,0.37815,-0.15513,-0.58080,-0.54592,115.43697,-0.20723,0.53408,-0.00102,-0.00499,0.84542,1,0,
06.29 17:04:08:206,41622,0.06665,-0.09547,9.78606,0.00000,0.00000,-0.00000,0.37915,-0.15358,-0.58327,-0.54738,115.43824,-0.20757,0.53407,-0.00102,-0.00501,0.84542,1,0,
06.29 17:04:08:216,41623,0.04065,-0.07697,9.78889,0.00000,0.00000,-0.00000,0.37914,-0.15514,-0.58029,-0.54686,115.43383,-0.20625,0.53410,-0.00103,-0.00500,0.84540,1,0,
06.29 17:04:08:225,41624,0.04312,-0.05998,9.79183,0.00000,0.00000,-0.00000,0.37716,-0.15361,-0.58229,-0.54535,115.43197,-0.20651,0.53412,-0.00102,-0.00499,0.84540,1,0,
06.29 17:04:08:235,41625,0.02365,-0.09628,9.80375,0.00000,0.00000,-0.00000,0.37865,-0.15512,-0.58129,-0.54577,115.43102,-0.20554,0.53412,-0.00103,-0.00498,0.84539,1,0,
06.29 17:04:08:245,41626,0.03365,-0.08596,9.79209,0.00000,0.00000,-0.00000,0.37667,-0.15462,-0.58180,-0.54493,115.43192,-0.20508,0.53412,-0.00103,-0.00498,0.84540,1,0,
06.29 17:04:08:255,41627,0.02222,-0.08375,9.80763,0.00000,0.00000,-0.00000,0.37667,-0.15559,-0.58330,-0.54484,115.43149,-0.20408,0.53412,-0.00103,-0.00497,0.84539,1,0,
06.29 17:04:08:266,41628,0.03745,-0.07137,9.80065,0.00000,0.00000,-0.00000,0.37963,-0.15315,-0.57978,-0.54599,115.43021,-0.20286,0.53413,-0.00105,-0.00497,0.84539,1,0,
06.29 17:04:08:276,41629,0.02994,-0.07940,9.78794,0.00000,0.00000,-0.00000,0.37864,-0.15565,-0.57980,-0.54603,115.42854,-0.20316,0.53414,-0.00105,-0.00498,0.84538,1,0,
06.29 17:04:08:287,41630,0.03923,-0.06609,9.80373,0.00000,0.00000,-0.00000,0.37765,-0.15366,-0.57980,-0.54476,115.42348,-0.20370,0.53418,-0.00104,-0.00497,0.84536,1,0,
06.29 17:04:08:296,41631,0.04501,-0.08739,9.78611,0.00000,0.00000,-0.00000,0.37815,-0.15612,-0.58130,-0.54556,115.42300,-0.20333,0.53418,-0.00104,-0.00497,0.84535,1,0,
06.29 17:04:08:305,41632,0.02058,-0.10350,9.80077,0.00000,0.00000,-0.00000,0.37518,-0.15610,-0.58282,-0.54666,115.42345,-0.20310,0.53418,-0.00105,-0.00498,0.84536,1,0,
06.29 17:04:08:315,41633,0.03175,-0.08906,9.80880,0.00000,0.00000,-0.00000,0.37765,-0.15465,-0.58030,-0.54487,115.42335,-0.20279,0.53418,-0.00104,-0.00496,0.84536,1,0,
06.29 17:04:08:325,41634,0.02990,-0.07478,9.79569,0.00000,0.00000,-0.00000,0.37717,-0.15459,-0.58329,-0.54423,115.42273,-0.20263,0.53418,-0.00104,-0.00496,0.84535,1,0,
06.29 17:04:08:335,41635,0.03443,-0.10094,9.80170,0.00000,0.00000,-0.00000,0.37914,-0.15665,-0.57980,-0.54382,115.42062,-0.20349,0.53420,-0.00103,-0.00496,0.84534,1,0,
06.29 17:04:08:347,41636,0.04093,-0.08453,9.78711,0.00000,0.00000,-0.00000,0.37668,-0.15307,-0.58429,-0.54333,115.42198,-0.20389,0.53419,-0.00103,-0.00496,0.84535,1,0,
06.29 17:04:08:356,41637,0.03801,-0.08061,9.79912,0.00000,0.00000,-0.00000,0.37767,-0.15409,-0.58329,-0.54291,115.42435,-0.20400,0.53417,-0.00103,-0.00496,0.84536,1,0,
06.29 17:04:08:366,41638,0.03320,-0.09910,9.80346,0.00000,0.00000,-0.00000,0.38014,-0.15460,-0.58227,-0.54373,115.42382,-0.20404,0.53418,-0.00103,-0.00496,0.84536,1,0,
06.29 17:04:08:376,41639,0.03700,-0.07209,9.79826,0.00000,0.00000,-0.00000,0.37915,-0.15458,-0.58328,-0.54486,115.42567,-0.20359,0.53416,-0.00104,-0.00497,0.84537,1,0,
06.29 17:04:08:385,41640,0.03959,-0.09066,9.78692,0.00000,0.00000,-0.00000,0.37863,-0.15367,-0.57880,-0.54566,115.42510,-0.20279,0.53417,-0.00105,-0.00497,0.84536,1,0,
06.29 17:04:08:395,41641,0.02307,-0.08342,9.79054,0.00000,0.00000,-0.00000,0.37716,-0.15113,-0.58129,-0.54490,115.42432,-0.20261,0.53417,-0.00105,-0.00496,0.84536,1,0,
06.29 17:04:08:405,41642,0.04998,-0.08674,9.80563,0.00000,0.00000,-0.00000,0.37915,-0.15308,-0.58327,-0.54440,115.41849,-0.20366,0.53422,-0.00104,-0.00497,0.84533,1,0,
06.29 17:04:08:415,41643,0.05186,-0.08510,9.79919,0.00000,0.00000,-0.00000,0.37617,-0.15460,-0.58280,-0.54510,115.42033,-0.20277,0.53420,-0.00105,-0.00497,0.84534,1,0,
06.29 17:04:08:426,41644,0.02421,-0.08936,9.78766,0.00000,0.00000,-0.00000,0.37866,-0.15259,-0.58327,-0.54436,115.42002,-0.20326,0.53420,-0.00104,-0.00496,0.84534,1,0,
06.29 17:04:08:437,41645,0.03878,-0.08607,9.79993,0.00000,0.00000,-0.00000,0.37865,-0.15461,-0.58179,-0.54502,115.41289,-0.20349,0.53426,-0.00104,-0.00497,0.84531,1,0,
06.29 17:04:08:447,41646,0.01976,-0.06535,9.78792,0.00000,0.00000,-0.00000,0.37767,-0.15308,-0.58378,-0.54625,115.41177,-0.20360,0.53427,-0.00104,-0.00498,0.84530,1,0,
06.29 17:04:08:455,41647,0.04816,-0.07327,9.79614,0.00000,0.00000,-0.00000,0.37964,-0.15561,-0.58178,-0.54554,115.41148,-0.20341,0.53427,-0.00104,-0.00497,0.84530,1,0,
06.29 17:04:08:465,41648,0.02632,-0.08102,9.79388,0.00000,0.00000,-0.00000,0.37667,-0.15559,-0.58330,-0.54730,115.41097,-0.20329,0.53427,-0.00105,-0.00499,0.84530,1,0,
06.29 17:04:08:475,41649,0.03753,-0.08310,9.79567,0.00000,0.00000,-0.00000,0.37816,-0.15211,-0.58228,-0.54670,115.41153,-0.20348,0.53427,-0.00105,-0.00498,0.84530,1,0,
06.29 17:04:08:485,41650,0.02224,-0.08127,9.79991,0.00000,0.00000,-0.00000,0.37667,-0.15459,-0.58330,-0.54612,115.41626,-0.20281,0.53423,-0.00105,-0.00497,0.84532,1,0,
06.29 17:04:08:496,41651,0.03699,-0.08326,9.78627,0.00000,0.00000,-0.00000,0.37717,-0.15260,-0.58279,-0.54764,115.41756,-0.20293,0.53422,-0.00106,-0.00499,0.84533,1,0,
06.29 17:04:08:505,41652,0.02918,-0.07975,9.79166,0.00000,0.00000,-0.00000,0.37767,-0.15608,-0.58329,-0.54716,115.41798,-0.20277,0.53422,-0.00106,-0.00498,0.84533,1,0,
06.29 17:04:08:516,41653,0.03122,-0.07615,9.81350,0.00000,0.00000,-0.00000,0.37865,-0.15363,-0.58079,-0.54719,115.41683,-0.20229,0.53423,-0.00106,-0.00498,0.84532,1,0,
06.29 17:04:08:526,41654,0.02352,-0.08757,9.79781,0.00000,0.00000,-0.00000,0.37716,-0.15313,-0.58130,-0.54852,115.41441,-0.20226,0.53425,-0.00107,-0.00499,0.84531,1,0,
06.29 17:04:08:535,41655,0.01582,-0.08853,9.78854,0.00000,0.00000,-0.00000,0.37617,-0.15412,-0.58181,-0.54775,115.41410,-0.20280,0.53425,-0.00106,-0.00499,0.84531,1,0,
06.29 17:04:08:545,41656,0.04322,-0.08811,9.79061,0.00000,0.00000,-0.00000,0.37767,-0.15508,-0.58379,-0.54763,115.41446,-0.20262,0.53425,-0.00106,-0.00498,0.84531,1,0,
06.29 17:04:08:555,41657,0.05484,-0.07932,9.79586,0.00000,0.00000,-0.00000,0.37667,-0.15512,-0.58181,-0.54784,115.41403,-0.20187,0.53425,-0.00106,-0.00498,0.84531,1,0,
06.29 17:04:08:565,41658,0.04555,-0.09043,9.79657,0.00000,0.00000,-0.00000,0.37866,-0.15508,-0.58328,-0.54839,115.41534,-0.20114,0.53424,-0.00107,-0.00498,0.84532,1,0,
06.29 17:04:08:576,41659,0.02128,-0.08048,9.80501,0.00000,0.00000,-0.00000,0.37667,-0.15459,-0.58330,-0.54713,115.41527,-0.20303,0.53424,-0.00105,-0.00498,0.84532,1,0,
06.29 17:04:08:586,41660,0.06412,-0.07066,9.78921,0.00000,0.00000,-0.00000,0.38014,-0.15111,-0.58176,-0.54673,115.41852,-0.20302,0.53422,-0.00105,-0.00498,0.84533,1,0,
06.29 17:04:08:596,41661,0.04262,-0.08075,9.79209,0.00000,0.00000,-0.00000,0.37666,-0.15463,-0.58131,-0.54734,115.41332,-0.20153,0.53425,-0.00107,-0.00498,0.84531,1,0,
06.29 17:04:08:606,41662,0.05164,-0.07349,9.79240,0.00000,0.00000,-0.00000,0.37767,-0.15407,-0.58428,-0.54712,115.41447,-0.20111,0.53425,-0.00107,-0.00497,0.84531,1,0,
06.29 17:04:08:616,41663,0.01357,-0.07179,9.81023,0.00000,0.00000,-0.00000,0.37816,-0.15509,-0.58279,-0.54674,115.41524,-0.19987,0.53424,-0.00107,-0.00497,0.84532,1,0,
06.29 17:04:08:625,41664,-0.00539,-0.09103,9.80184,0.00000,0.00000,-0.00000,0.37766,-0.15460,-0.58279,-0.54664,115.41537,-0.19842,0.53424,-0.00108,-0.00496,0.84532,1,0,
06.29 17:04:08:635,41665,0.03912,-0.08443,9.80897,0.00000,0.00000,-0.00000,0.37766,-0.15362,-0.58179,-0.54681,115.41568,-0.19839,0.53424,-0.00109,-0.00496,0.84532,1,0,
06.29 17:04:08:646,41666,0.03832,-0.08858,9.78301,0.00000,0.00000,-0.00000,0.37866,-0.15457,-0.58378,-0.54634,115.41540,-0.19892,0.53424,-0.00108,-0.00496,0.84532,1,0,
06.29 17:04:08:656,41667,0.06019,-0.07882,9.78899,0.00000,0.00000,-0.00000,0.37816,-0.15508,-0.58329,-0.54555,115.41502,-0.19810,0.53424,-0.00108,-0.00495,0.84532,1,0,
06.29 17:04:08:666,41668,0.03906,-0.08658,9.80508,0.00000,0.00000,-0.00000,0.37765,-0.15314,-0.58080,-0.54671,115.41540,-0.19883,0.53424,-0.00108,-0.00496,0.84532,1,0,
06.29 17:04:08:676,41669,0.03754,-0.06209,9.79953,0.00000,0.00000,-0.00000,0.37617,-0.15711,-0.58231,-0.54713,115.41779,-0.19687,0.53422,-0.00110,-0.00495,0.84533,1,0,
06.29 17:04:08:686,41670,0.03728,-0.08983,9.79760,0.00000,0.00000,-0.00000,0.37815,-0.15214,-0.58079,-0.54528,115.42010,-0.19696,0.53420,-0.00109,-0.00494,0.84534,1,0,
06.29 17:04:08:695,41671,0.03331,-0.08239,9.78863,0.00000,0.00000,-0.00000,0.37766,-0.15410,-0.58279,-0.54647,115.41708,-0.19714,0.53423,-0.00109,-0.00495,0.84533,1,0,
06.29 17:04:08:706,41672,0.03973,-0.08473,9.79183,0.00000,0.00000,-0.00000,0.37767,-0.15458,-0.58379,-0.54703,115.41853,-0.19708,0.53422,-0.00110,-0.00495,0.84533,1,0,
06.29 17:04:08:715,41673,0.01954,-0.08835,9.79004,0.00000,0.00000,-0.00000,0.37917,-0.15452,-0.58626,-0.54490,115.41788,-0.19684,0.53422,-0.00109,-0.00494,0.84533,1,0,
06.29 17:04:08:725,41674,0.03942,-0.06450,9.80465,0.00000,0.00000,-0.00000,0.37667,-0.15512,-0.58181,-0.54677,115.41663,-0.19630,0.53423,-0.00110,-0.00495,0.84532,1,0,
06.29 17:04:08:736,41675,0.04529,-0.09864,9.79328,0.00000,0.00000,-0.00000,0.37865,-0.15510,-0.58229,-0.54669,115.41692,-0.19663,0.53423,-0.00110,-0.00495,0.84533,1,0,
06.29 17:04:08:746,41676,0.03779,-0.08732,9.81028,0.00000,0.00000,-0.00000,0.37518,-0.15360,-0.58281,-0.54539,115.41545,-0.19693,0.53424,-0.00109,-0.00494,0.84532,1,0,
06.29 17:04:08:756,41677,0.03501,-0.06840,9.78952,0.00000,0.00000,-0.00000,0.37866,-0.15406,-0.58427,-0.54516,115.41743,-0.19629,0.53422,-0.00109,-0.00494,0.84533,1,0,
06.29 17:04:08:766,41678,0.03388,-0.06860,9.79917,0.00000,0.00000,-0.00000,0.37964,-0.15511,-0.58178,-0.54603,115.41646,-0.19477,0.53423,-0.00111,-0.00494,0.84532,1,0,
06.29 17:04:08:775,41679,0.03184,-0.07626,9.78306,0.00000,0.00000,-0.00000,0.37915,-0.15709,-0.58279,-0.54610,115.41766,-0.19304,0.53422,-0.00112,-0.00493,0.84533,1,0,
06.29 17:04:08:785,41680,0.04132,-0.08514,9.80413,0.00000,0.00000,-0.00000,0.37865,-0.15411,-0.58179,-0.54751,115.41958,-0.19249,0.53421,-0.00113,-0.00494,0.84534,1,0,
06.29 17:04:08:794,41681,0.04447,-0.07377,9.78620,0.00000,0.00000,-0.00000,0.37766,-0.15660,-0.58230,-0.54660,115.42016,-0.19118,0.53420,-0.00114,-0.00492,0.84534,1,0,
06.29 17:04:08:806,41682,0.04478,-0.07553,9.79884,0.00000,0.00000,-0.00000,0.37915,-0.15509,-0.58278,-0.54560,115.41904,-0.19159,0.53421,-0.00113,-0.00492,0.84534,1,0,
06.29 17:04:08:816,41683,0.03288,-0.07948,9.80432,0.00000,0.00000,-0.00000,0.37766,-0.15563,-0.58130,-0.54580,115.41969,-0.19099,0.53421,-0.00114,-0.00492,0.84534,1,0,
06.29 17:04:08:827,41684,0.03974,-0.09661,9.78701,0.00000,0.00000,-0.00000,0.37716,-0.15362,-0.58180,-0.54496,115.42110,-0.19186,0.53420,-0.00113,-0.00491,0.84535,1,0,
06.29 17:04:08:836,41685,0.04709,-0.09580,9.81152,0.00000,0.00000,-0.00000,0.37964,-0.15262,-0.58128,-0.54611,115.42175,-0.19171,0.53419,-0.00113,-0.00492,0.84535,1,0,
06.29 17:04:08:846,41686,0.04219,-0.08744,9.79381,0.00000,0.00000,-0.00000,0.37617,-0.15313,-0.58130,-0.54731,115.41552,-0.19140,0.53424,-0.00114,-0.00493,0.84532,1,0,
06.29 17:04:08:855,41687,0.02199,-0.08627,9.79669,0.00000,0.00000,-0.00000,0.37815,-0.15312,-0.58179,-0.54768,115.41359,-0.19192,0.53425,-0.00114,-0.00493,0.84531,1,0,
06.29 17:04:08:865,41688,0.03142,-0.07456,9.80129,0.00000,0.00000,-0.00000,0.37915,-0.15208,-0.58327,-0.54613,115.40858,-0.19188,0.53429,-0.00113,-0.00492,0.84529,1,0,
06.29 17:04:08:875,41689,0.03026,-0.06661,9.80749,0.00000,0.00000,-0.00000,0.37717,-0.15608,-0.58380,-0.54724,115.41090,-0.19195,0.53427,-0.00114,-0.00493,0.84530,1,0,
06.29 17:04:08:885,41690,0.02574,-0.08737,9.79712,0.00000,0.00000,-0.00000,0.38063,-0.15615,-0.57979,-0.54861,115.41154,-0.19237,0.53427,-0.00114,-0.00494,0.84530,1,0,
06.29 17:04:08:896,41691,0.02136,-0.07659,9.79268,0.00000,0.00000,-0.00000,0.37817,-0.15306,-0.58477,-0.55121,115.41119,-0.19146,0.53427,-0.00116,-0.00496,0.84530,1,0,
06.29 17:04:08:906,41692,0.04069,-0.08231,9.79583,0.00000,0.00000,-0.00000,0.37915,-0.15561,-0.58179,-0.55202,115.41068,-0.19178,0.53427,-0.00116,-0.00497,0.84530,1,0,
06.29 17:04:08:915,41693,0.03209,-0.09351,9.79757,0.00000,0.00000,-0.00000,0.37965,-0.15460,-0.58228,-0.55128,115.41048,-0.19135,0.53427,-0.00116,-0.00496,0.84530,1,0,
06.29 17:04:08:926,41694,0.02885,-0.07828,9.78949,0.00000,0.00000,-0.00000,0.37816,-0.15309,-0.58328,-0.55228,115.41136,-0.19249,0.53427,-0.00115,-0.00497,0.84530,1,0,
06.29 17:04:08:935,41695,0.03280,-0.09664,9.77280,0.00000,0.00000,-0.00000,0.37717,-0.15260,-0.58279,-0.55047,115.41039,-0.19370,0.53428,-0.00114,-0.00496,0.84529,1,0,
06.29 17:04:08:946,41696,0.02797,-0.08845,9.79590,0.00000,0.00000,-0.00000,0.37716,-0.15314,-0.58080,-0.55103,115.40617,-0.19310,0.53431,-0.00114,-0.00497,0.84528,1,0,
06.29 17:04:08:955,41697,0.04281,-0.07772,9.78430,0.00000,0.00000,-0.00000,0.37716,-0.15562,-0.58180,-0.55116,115.40456,-0.19143,0.53432,-0.00116,-0.00496,0.84527,1,0,
06.29 17:04:08:965,41698,0.02208,-0.08131,9.79295,0.00000,0.00000,-0.00000,0.37617,-0.15563,-0.58131,-0.55135,115.40592,-0.19061,0.53431,-0.00116,-0.00496,0.84527,1,0,
06.29 17:04:08:977,41699,0.03467,-0.09123,9.78353,0.00000,0.00000,-0.00000,0.37767,-0.15259,-0.58328,-0.55139,115.40532,-0.19052,0.53431,-0.00117,-0.00496,0.84527,1,0,
06.29 17:04:08:987,41700,0.01861,-0.08957,9.80072,0.00000,0.00000,-0.00000,0.37866,-0.15457,-0.58378,-0.55362,115.40745,-0.19085,0.53430,-0.00117,-0.00497,0.84528,1,0,
06.29 17:04:08:996,41701,0.01570,-0.07505,9.78830,0.00000,0.00000,-0.00000,0.37667,-0.15209,-0.58329,-0.55316,115.40652,-0.19013,0.53430,-0.00118,-0.00497,0.84528,1,0,
06.29 17:04:09:006,41702,0.02168,-0.08229,9.80165,0.00000,0.00000,-0.00000,0.37865,-0.15512,-0.58129,-0.55150,115.41370,-0.18957,0.53425,-0.00117,-0.00495,0.84531,1,0,
06.29 17:04:09:016,41703,0.02386,-0.08710,9.78999,0.00000,0.00000,-0.00000,0.37518,-0.15260,-0.58330,-0.55076,115.41486,-0.18939,0.53424,-0.00117,-0.00495,0.84532,1,0,
06.29 17:04:09:025,41704,0.05293,-0.08599,9.79495,0.00000,0.00000,-0.00000,0.37815,-0.15412,-0.58179,-0.55087,115.41693,-0.18957,0.53423,-0.00117,-0.00495,0.84533,1,0,
06.29 17:04:09:035,41705,0.03899,-0.07320,9.80516,0.00000,0.00000,-0.00000,0.37916,-0.15658,-0.58328,-0.55048,115.41608,-0.18863,0.53423,-0.00117,-0.00494,0.84532,1,0,
06.29 17:04:09:046,41706,0.05449,-0.08253,9.79183,0.00000,0.00000,-0.00000,0.37866,-0.15456,-0.58428,-0.55092,115.41499,-0.18758,0.53424,-0.00118,-0.00494,0.84532,1,0,
06.29 17:04:09:056,41707,0.04312,-0.07092,9.81362,0.00000,0.00000,-0.00000,0.37914,-0.15562,-0.58129,-0.55077,115.41393,-0.18755,0.53425,-0.00118,-0.00494,0.84531,1,0,
06.29 17:04:09:066,41708,0.03890,-0.08725,9.80756,0.00000,0.00000,-0.00000,0.37966,-0.15206,-0.58426,-0.55023,115.41469,-0.18778,0.53424,-0.00118,-0.00493,0.84532,1,0,
06.29 17:04:09:076,41709,0.03181,-0.05358,9.79316,0.00000,0.00000,-0.00000,0.37865,-0.15462,-0.58129,-0.55104,115.41244,-0.18736,0.53426,-0.00119,-0.00494,0.84530,1,0,
06.29 17:04:09:086,41710,0.02781,-0.10001,9.79102,0.00000,0.00000,-0.00000,0.37716,-0.15613,-0.58131,-0.55194,115.41311,-0.18680,0.53426,-0.00120,-0.00494,0.84531,1,0,
06.29 17:04:09:095,41711,0.03011,-0.07597,9.77881,0.00000,0.00000,-0.00000,0.37618,-0.15557,-0.58430,-0.55309,115.41455,-0.18565,0.53424,-0.00121,-0.00495,0.84531,1,0,
06.29 17:04:09:105,41712,0.03310,-0.09864,9.81333,0.00000,0.00000,-0.00000,0.37964,-0.15561,-0.58178,-0.55253,115.41463,-0.18589,0.53424,-0.00120,-0.00494,0.84531,1,0,
06.29 17:04:09:115,41713,0.02828,-0.08132,9.79362,0.00000,0.00000,-0.00000,0.37965,-0.15560,-0.58228,-0.54902,115.41355,-0.18568,0.53425,-0.00119,-0.00492,0.84531,1,0,
06.29 17:04:09:126,41714,0.03404,-0.08934,9.79965,0.00000,0.00000,-0.00000,0.37469,-0.15458,-0.58381,-0.54974,115.41354,-0.18491,0.53425,-0.00120,-0.00492,0.84531,1,0,
06.29 17:04:09:137,41715,0.05800,-0.07965,9.80158,0.00000,0.00000,-0.00000,0.38014,-0.15560,-0.58228,-0.54785,115.40911,-0.18553,0.53428,-0.00119,-0.00491,0.84529,1,0,
06.29 17:04:09:146,41716,0.02181,-0.07882,9.79409,0.00000,0.00000,-0.00000,0.37667,-0.15111,-0.58229,-0.54507,115.40862,-0.18564,0.53429,-0.00117,-0.00489,0.84529,1,0,
06.29 17:04:09:156,41717,0.02741,-0.08037,9.80144,0.00000,0.00000,-0.00000,0.37914,-0.15464,-0.58029,-0.54732,115.40604,-0.18493,0.53431,-0.00119,-0.00490,0.84528,1,0,
06.29 17:04:09:165,41718,0.02732,-0.07239,9.79769,0.00000,0.00000,-0.00000,0.37815,-0.15363,-0.58129,-0.54805,115.40501,-0.18521,0.53432,-0.00119,-0.00491,0.84527,1,0,
06.29 17:04:09:175,41719,0.05167,-0.07238,9.78935,0.00000,0.00000,-0.00000,0.38015,-0.15708,-0.58328,-0.54816,115.40378,-0.18628,0.53432,-0.00118,-0.00491,0.84526,1,0,
06.29 17:04:09:185,41720,0.05198,-0.08081,9.79545,0.00000,0.00000,-0.00000,0.37766,-0.15560,-0.58230,-0.54855,115.40211,-0.18731,0.53434,-0.00118,-0.00492,0.84526,1,0,
06.29 17:04:09:195,41721,0.05430,-0.07513,9.77013,0.00000,0.00000,-0.00000,0.37667,-0.15312,-0.58180,-0.54800,115.40198,-0.18713,0.53434,-0.00118,-0.00491,0.84526,1,0,
06.29 17:04:09:205,41722,0.03254,-0.06886,9.78246,0.00000,0.00000,-0.00000,0.37767,-0.15408,-0.58378,-0.54945,115.40267,-0.18730,0.53433,-0.00118,-0.00493,0.84526,1,0,
06.29 17:04:09:216,41723,0.02301,-0.08502,9.79412,0.00000,0.00000,-0.00000,0.37916,-0.15457,-0.58377,-0.54893,115.40218,-0.18697,0.53434,-0.00118,-0.00492,0.84526,1,0,
06.29 17:04:09:226,41724,0.03859,-0.07285,9.80299,0.00000,0.00000,-0.00000,0.37817,-0.15557,-0.58379,-0.54972,115.40044,-0.18652,0.53435,-0.00119,-0.00492,0.84525,1,0,
06.29 17:04:09:235,41725,0.04800,-0.09081,9.78770,0.00000,0.00000,-0.00000,0.37965,-0.15359,-0.58277,-0.54928,115.39880,-0.18727,0.53436,-0.00118,-0.00492,0.84524,1,0,
06.29 17:04:09:246,41726,0.02241,-0.08320,9.79254,0.00000,0.00000,-0.00000,0.37764,-0.15518,-0.57881,-0.55016,115.39914,-0.18723,0.53436,-0.00118,-0.00493,0.84524,1,0,
06.29 17:04:09:256,41727,0.03573,-0.08153,9.78437,0.00000,0.00000,-0.00000,0.37766,-0.15711,-0.58180,-0.55046,115.40084,-0.18597,0.53435,-0.00120,-0.00493,0.84525,1,0,
06.29 17:04:09:265,41728,0.05254,-0.09640,9.78739,0.00000,0.00000,-0.00000,0.37766,-0.15662,-0.58131,-0.54964,115.40091,-0.18592,0.53435,-0.00119,-0.00492,0.84525,1,0,
06.29 17:04:09:275,41729,0.02285,-0.07116,9.79340,0.00000,0.00000,-0.00000,0.37616,-0.15566,-0.57982,-0.54987,115.40011,-0.18553,0.53435,-0.00120,-0.00492,0.84525,1,0,
06.29 17:04:09:286,41730,0.01729,-0.10066,9.79226,0.00000,0.00000,-0.00000,0.37666,-0.15364,-0.58081,-0.54974,115.40006,-0.18482,0.53435,-0.00120,-0.00492,0.84525,1,0,
06.29 17:04:09:296,41731,0.02514,-0.07265,9.80659,0.00000,0.00000,-0.00000,0.37766,-0.15609,-0.58280,-0.55022,115.40071,-0.18310,0.53435,-0.00122,-0.00491,0.84525,1,0,
06.29 17:04:09:305,41732,0.02407,-0.09400,9.78975,0.00000,0.00000,-0.00000,0.37864,-0.15617,-0.57881,-0.55042,115.39804,-0.18269,0.53437,-0.00122,-0.00491,0.84524,1,0,
06.29 17:04:09:315,41733,0.04025,-0.07143,9.80578,0.00000,0.00000,-0.00000,0.37814,-0.15466,-0.57930,-0.54879,115.39391,-0.18191,0.53440,-0.00122,-0.00490,0.84522,1,0,
06.29 17:04:09:325,41734,0.02090,-0.07873,9.79304,0.00000,0.00000,-0.00000,0.37716,-0.15562,-0.58180,-0.54718,115.39240,-0.18078,0.53441,-0.00122,-0.00488,0.84521,1,0,
06.29 17:04:09:335,41735,0.02806,-0.09165,9.79996,0.00000,0.00000,-0.00000,0.37915,-0.15461,-0.58178,-0.54568,115.39024,-0.18000,0.53442,-0.00122,-0.00486,0.84520,1,0,
06.29 17:04:09:346,41736,0.03528,-0.07255,9.78985,0.00000,0.00000,-0.00000,0.37766,-0.15609,-0.58280,-0.54478,115.39072,-0.17939,0.53442,-0.00122,-0.00485,0.84520,1,0,
06.29 17:04:09:355,41737,0.03692,-0.06898,9.78889,0.00000,0.00000,-0.00000,0.37816,-0.15509,-0.58279,-0.54561,115.38721,-0.17881,0.53445,-0.00123,-0.00486,0.84519,1,0,
06.29 17:04:09:366,41738,0.03159,-0.07716,9.79915,0.00000,0.00000,-0.00000,0.37717,-0.15661,-0.58230,-0.54556,115.38692,-0.17951,0.53445,-0.00122,-0.00486,0.84519,1,0,
06.29 17:04:09:376,41739,0.03682,-0.08977,9.80149,0.00000,0.00000,-0.00000,0.37766,-0.15462,-0.58180,-0.54530,115.38714,-0.17924,0.53445,-0.00122,-0.00486,0.84519,1,0,
06.29 17:04:09:386,41740,0.05323,-0.07093,9.80694,0.00000,0.00000,-0.00000,0.37815,-0.15613,-0.58080,-0.54620,115.38641,-0.17931,0.53445,-0.00122,-0.00486,0.84518,1,0,
06.29 17:04:09:395,41741,0.04799,-0.07418,9.78532,0.00000,0.00000,-0.00000,0.37567,-0.15613,-0.58132,-0.54632,115.38292,-0.17874,0.53448,-0.00123,-0.00486,0.84517,1,0,
06.29 17:04:09:405,41742,0.04073,-0.08370,9.79524,0.00000,0.00000,-0.00000,0.38063,-0.15664,-0.58029,-0.54509,115.38223,-0.17908,0.53448,-0.00122,-0.00486,0.84516,1,0,
06.29 17:04:09:416,41743,0.05561,-0.08030,9.80096,0.00000,0.00000,-0.00000,0.37369,-0.15413,-0.58183,-0.54801,115.38295,-0.17834,0.53448,-0.00124,-0.00487,0.84517,1,0,
06.29 17:04:09:426,41744,0.04572,-0.09177,9.81159,0.00000,0.00000,-0.00000,0.37764,-0.15520,-0.57782,-0.54586,115.38093,-0.17845,0.53449,-0.00123,-0.00486,0.84516,1,0,
06.29 17:04:09:436,41745,0.03008,-0.08527,9.80380,0.00000,0.00000,-0.00000,0.37914,-0.15363,-0.58079,-0.54436,115.38557,-0.17800,0.53446,-0.00123,-0.00485,0.84518,1,0,
06.29 17:04:09:445,41746,0.02937,-0.06948,9.79934,0.00000,0.00000,-0.00000,0.37815,-0.15513,-0.58080,-0.54541,115.38542,-0.17736,0.53446,-0.00124,-0.00485,0.84518,1,0,
06.29 17:04:09:456,41747,0.03305,-0.07985,9.79810,0.00000,0.00000,-0.00000,0.37814,-0.15518,-0.57831,-0.54382,115.38525,-0.17821,0.53446,-0.00122,-0.00484,0.84518,1,0,
06.29 17:04:09:465,41748,0.03145,-0.07897,9.79216,0.00000,0.00000,-0.00000,0.37715,-0.15666,-0.57982,-0.54572,115.37984,-0.17826,0.53450,-0.00123,-0.00486,0.84515,1,0,
06.29 17:04:09:475,41749,0.04230,-0.09223,9.78808,0.00000,0.00000,-0.00000,0.37865,-0.15761,-0.58180,-0.54765,115.38609,-0.17831,0.53445,-0.00124,-0.00487,0.84518,1,0,
06.29 17:04:09:485,41750,0.02681,-0.09351,9.80411,0.00000,0.00000,-0.00000,0.37716,-0.15463,-0.58130,-0.54809,115.38729,-0.17810,0.53445,-0.00124,-0.00487,0.84519,1,0,
06.29 17:04:09:495,41751,0.02478,-0.08070,9.79919,0.00000,0.00000,-0.00000,0.37567,-0.15565,-0.58032,-0.54888,115.38805,-0.17758,0.53444,-0.00125,-0.00488,0.84519,1,0,
06.29 17:04:09:505,41752,0.03992,-0.08174,9.79390,0.00000,0.00000,-0.00000,0.37715,-0.15316,-0.57980,-0.54906,115.38595,-0.17847,0.53446,-0.00124,-0.00488,0.84518,1,0,
06.29 17:04:09:515,41753,0.02863,-0.08221,9.79073,0.00000,0.00000,-0.00000,0.37914,-0.15363,-0.58079,-0.54893,115.38275,-0.17867,0.53448,-0.00124,-0.00488,0.84517,1,0,
06.29 17:04:09:527,41754,0.02695,-0.08409,9.78610,0.00000,0.00000,-0.00000,0.37617,-0.15561,-0.58231,-0.55103,115.38255,-0.17752,0.53448,-0.00126,-0.00489,0.84517,1,0,
06.29 17:04:09:537,41755,0.02645,-0.08216,9.79467,0.00000,0.00000,-0.00000,0.37716,-0.15665,-0.58031,-0.55093,115.38225,-0.17697,0.53448,-0.00126,-0.00489,0.84516,1,0,
06.29 17:04:09:545,41756,0.04881,-0.07383,9.79152,0.00000,0.00000,-0.00000,0.37765,-0.15464,-0.58080,-0.54999,115.38289,-0.17739,0.53448,-0.00126,-0.00488,0.84517,1,0,
06.29 17:04:09:555,41757,0.03853,-0.09221,9.80005,0.00000,0.00000,-0.00000,0.37866,-0.15559,-0.58279,-0.55127,115.38248,-0.17787,0.53448,-0.00126,-0.00490,0.84517,1,0,
06.29 17:04:09:565,41758,0.04147,-0.08519,9.79023,0.00000,0.00000,-0.00000,0.37716,-0.15714,-0.58081,-0.55290,115.38377,-0.17740,0.53447,-0.00127,-0.00491,0.84517,1,0,
06.29 17:04:09:576,41759,0.02141,-0.05807,9.78878,0.00000,0.00000,-0.00000,0.37616,-0.15566,-0.57982,-0.55389,115.38328,-0.17718,0.53448,-0.00128,-0.00491,0.84517,1,0,
06.29 17:04:09:585,41760,0.04383,-0.08079,9.79762,0.00000,0.00000,-0.00000,0.37667,-0.15612,-0.58181,-0.55539,115.38383,-0.17657,0.53447,-0.00129,-0.00492,0.84517,1,0,
06.29 17:04:09:595,41761,0.01523,-0.05337,9.80823,0.00000,0.00000,-0.00000,0.37717,-0.15609,-0.58330,-0.55431,115.38360,-0.17680,0.53447,-0.00128,-0.00491,0.84517,1,0,
06.29 17:04:09:606,41762,0.02712,-0.09182,9.80091,0.00000,0.00000,-0.00000,0.37815,-0.15364,-0.58079,-0.55453,115.38409,-0.17686,0.53447,-0.00128,-0.00491,0.84517,1,0,
06.29 17:04:09:616,41763,0.02259,-0.08531,9.80771,0.00000,0.00000,-0.00000,0.37617,-0.15612,-0.58181,-0.55516,115.38512,-0.17660,0.53446,-0.00129,-0.00492,0.84518,1,0,
06.29 17:04:09:625,41764,0.04614,-0.07678,9.81329,0.00000,0.00000,-0.00000,0.37815,-0.15614,-0.58030,-0.55484,115.38704,-0.17649,0.53445,-0.00129,-0.00492,0.84519,1,0,
06.29 17:04:09:635,41765,0.06316,-0.08269,9.80268,0.00000,0.00000,-0.00000,0.37765,-0.15517,-0.57931,-0.55471,115.38375,-0.17779,0.53447,-0.00128,-0.00492,0.84517,1,0,
06.29 17:04:09:645,41766,0.04711,-0.07883,9.78406,0.00000,0.00000,-0.00000,0.37368,-0.15615,-0.58084,-0.55389,115.38121,-0.17760,0.53449,-0.00127,-0.00491,0.84516,1,0,
06.29 17:04:09:655,41767,0.02399,-0.06312,9.78756,0.00000,0.00000,-0.00000,0.37666,-0.15913,-0.58082,-0.55351,115.38074,-0.17749,0.53449,-0.00127,-0.00491,0.84516,1,0,
06.29 17:04:09:666,41768,0.02805,-0.08088,9.79667,0.00000,0.00000,-0.00000,0.37617,-0.15512,-0.58181,-0.55269,115.37743,-0.17767,0.53452,-0.00127,-0.00491,0.84514,1,0,
06.29 17:04:09:675,41769,0.03593,-0.07179,9.79340,0.00000,0.00000,-0.00000,0.37616,-0.15665,-0.58032,-0.55525,115.37868,-0.17791,0.53451,-0.00128,-0.00493,0.84515,1,0,
06.29 17:04:09:686,41770,0.04454,-0.09199,9.79576,0.00000,0.00000,-0.00000,0.37717,-0.15508,-0.58379,-0.55570,115.37628,-0.17866,0.53453,-0.00127,-0.00493,0.84514,1,0,
06.29 17:04:09:697,41771,0.02733,-0.09734,9.78978,0.00000,0.00000,-0.00000,0.37666,-0.15564,-0.58081,-0.55585,115.37813,-0.17938,0.53451,-0.00127,-0.00494,0.84514,1,0,
06.29 17:04:09:705,41772,0.02657,-0.07381,9.79614,0.00000,0.00000,-0.00000,0.37816,-0.15710,-0.58230,-0.55791,115.37812,-0.18016,0.53451,-0.00127,-0.00496,0.84514,1,0,
06.29 17:04:09:715,41773,0.04666,-0.08155,9.79078,0.00000,0.00000,-0.00000,0.37765,-0.15515,-0.58030,-0.55707,115.37733,-0.18032,0.53452,-0.00127,-0.00495,0.84514,1,0,
06.29 17:04:09:725,41774,0.03242,-0.07084,9.80337,0.00000,0.00000,-0.00000,0.37666,-0.15715,-0.58032,-0.55766,115.37946,-0.18099,0.53450,-0.00127,-0.00496,0.84515,1,0,
06.29 17:04:09:736,41775,0.04815,-0.07373,9.77933,0.00000,0.00000,-0.00000,0.37765,-0.15314,-0.58080,-0.55744,115.38474,-0.18146,0.53446,-0.00126,-0.00496,0.84518,1,0,
06.29 17:04:09:745,41776,0.03646,-0.09658,9.78837,0.00000,0.00000,-0.00000,0.37568,-0.15759,-0.58332,-0.55730,115.38393,-0.18073,0.53447,-0.00127,-0.00495,0.84517,1,0,
06.29 17:04:09:755,41777,0.03604,-0.07670,9.79860,0.00000,0.00000,-0.00000,0.37715,-0.15765,-0.57982,-0.54949,115.38910,-0.19022,0.53443,-0.00116,-0.00494,0.84520,1,0,
06.29 17:04:09:766,41778,0.03509,-0.08513,9.79862,0.00000,0.00000,-0.00000,0.37765,-0.15665,-0.57981,-0.55001,115.38761,-0.19121,0.53444,-0.00115,-0.00495,0.84519,1,0,
06.29 17:04:09:776,41779,0.04411,-0.07501,9.80422,0.00000,0.00000,-0.00000,0.37616,-0.15516,-0.57982,-0.55121,115.38138,-0.19170,0.53449,-0.00116,-0.00496,0.84516,1,0,
06.29 17:04:09:785,41780,0.04993,-0.09713,9.79245,0.00000,0.00000,-0.00000,0.37914,-0.15714,-0.58030,-0.55339,115.38319,-0.19120,0.53448,-0.00117,-0.00497,0.84517,1,0,
06.29 17:04:09:795,41781,0.03555,-0.07853,9.79397,0.00000,0.00000,-0.00000,0.37814,-0.15419,-0.57831,-0.55277,115.37984,-0.19040,0.53450,-0.00117,-0.00497,0.84515,1,0,
06.29 17:04:09:805,41782,0.03346,-0.07798,9.78999,0.00000,0.00000,-0.00000,0.37915,-0.15612,-0.58129,-0.55220,115.38299,-0.19182,0.53448,-0.00116,-0.00497,0.84517,1,0,
06.29 17:04:09:815,41783,0.01881,-0.08536,9.79695,0.00000,0.00000,-0.00000,0.37766,-0.15759,-0.58280,-0.55147,115.38366,-0.19143,0.53447,-0.00116,-0.00496,0.84517,1,0,
06.29 17:04:09:825,41784,0.03237,-0.09037,9.79271,0.00000,0.00000,-0.00000,0.37716,-0.15715,-0.58032,-0.55086,115.38714,-0.19274,0.53445,-0.00115,-0.00496,0.84519,1,0,
06.29 17:04:09:836,41785,0.03800,-0.09502,9.79741,0.00000,0.00000,-0.00000,0.37716,-0.15613,-0.58131,-0.55167,115.38399,-0.19292,0.53447,-0.00115,-0.00497,0.84517,1,0,
06.29 17:04:09:846,41786,0.03102,-0.08262,9.80070,0.00000,0.00000,-0.00000,0.37865,-0.15760,-0.58230,-0.55309,115.38521,-0.19327,0.53446,-0.00115,-0.00498,0.84518,1,0,
06.29 17:04:09:856,41787,0.03402,-0.08780,9.79190,0.00000,0.00000,-0.00000,0.37667,-0.15312,-0.58180,-0.55178,115.38547,-0.19265,0.53446,-0.00115,-0.00497,0.84518,1,0,
06.29 17:04:09:865,41788,0.02999,-0.08968,9.80675,0.00000,0.00000,-0.00000,0.37814,-0.15665,-0.57981,-0.55121,115.38647,-0.19267,0.53445,-0.00115,-0.00496,0.84518,1,0,
06.29 17:04:09:875,41789,0.02736,-0.07998,9.79881,0.00000,0.00000,-0.00000,0.37716,-0.15564,-0.58081,-0.55096,115.38354,-0.19233,0.53447,-0.00115,-0.00496,0.84517,1,0,
06.29 17:04:09:886,41790,0.03220,-0.07573,9.79462,0.00000,0.00000,-0.00000,0.37568,-0.15561,-0.58231,-0.54989,115.38235,-0.19271,0.53448,-0.00114,-0.00495,0.84516,1,0,
06.29 17:04:09:895,41791,0.04210,-0.07946,9.78913,0.00000,0.00000,-0.00000,0.37666,-0.15465,-0.58031,-0.55273,115.38468,-0.19247,0.53447,-0.00116,-0.00497,0.84518,1,0,
06.29 17:04:09:905,41792,0.03226,-0.07263,9.79707,0.00000,0.00000,-0.00000,0.37668,-0.15607,-0.58430,-0.55064,115.38291,-0.19242,0.53448,-0.00115,-0.00496,0.84517,1,0,
06.29 17:04:09:916,41793,0.04376,-0.08610,9.78866,0.00000,0.00000,-0.00000,0.37815,-0.15514,-0.58030,-0.55045,115.38354,-0.19156,0.53447,-0.00115,-0.00495,0.84517,1,0,
06.29 17:04:09:926,41794,0.01669,-0.08183,9.79204,0.00000,0.00000,-0.00000,0.37517,-0.15267,-0.57982,-0.55035,115.38476,-0.19155,0.53446,-0.00115,-0.00495,0.84518,1,0,
06.29 17:04:09:935,41795,0.04161,-0.09364,9.79853,0.00000,0.00000,-0.00000,0.37815,-0.15414,-0.58079,-0.54957,115.38567,-0.19150,0.53446,-0.00115,-0.00495,0.84518,1,0,
06.29 17:04:09:945,41796,0.02885,-0.06936,9.80573,0.00000,0.00000,-0.00000,0.37567,-0.15415,-0.58032,-0.54976,115.38455,-0.19192,0.53447,-0.00115,-0.00495,0.84517,1,0,
06.29 17:04:09:955,41797,0.03815,-0.09309,9.79040,0.00000,0.00000,-0.00000,0.37666,-0.15663,-0.58131,-0.55037,115.38390,-0.19199,0.53447,-0.00115,-0.00495,0.84517,1,0,
06.29 17:04:09:965,41798,0.03162,-0.09298,9.79550,0.00000,0.00000,-0.00000,0.37617,-0.15462,-0.58181,-0.54911,115.38506,-0.19290,0.53446,-0.00114,-0.00495,0.84518,1,0,
06.29 17:04:09:975,41799,0.03352,-0.07200,9.78830,0.00000,0.00000,-0.00000,0.37668,-0.15457,-0.58429,-0.54949,115.38490,-0.19152,0.53446,-0.00115,-0.00495,0.84518,1,0,
06.29 17:04:09:985,41800,0.03450,-0.08133,9.78682,0.00000,0.00000,-0.00000,0.37617,-0.15362,-0.58180,-0.54996,115.38690,-0.19166,0.53445,-0.00115,-0.00495,0.84519,1,0,
06.29 17:04:09:997,41801,0.04951,-0.08647,9.79455,0.00000,0.00000,-0.00000,0.37765,-0.15516,-0.57981,-0.55110,115.38720,-0.19194,0.53445,-0.00115,-0.00496,0.84519,1,0,
06.29 17:04:10:006,41802,0.04741,-0.07273,9.78344,0.00000,0.00000,-0.00000,0.37765,-0.15515,-0.58030,-0.55023,115.38606,-0.19181,0.53446,-0.00115,-0.00495,0.84518,1,0,
06.29 17:04:10:016,41803,0.05629,-0.08344,9.80806,0.00000,0.00000,-0.00000,0.37666,-0.15415,-0.58031,-0.55056,115.38587,-0.19125,0.53446,-0.00116,-0.00495,0.84518,1,0,
06.29 17:04:10:026,41804,0.02525,-0.05682,9.79717,0.00000,0.00000,-0.00000,0.37666,-0.15363,-0.58130,-0.54997,115.38622,-0.19107,0.53445,-0.00116,-0.00495,0.84518,1,0,
06.29 17:04:10:035,41805,0.02914,-0.09824,9.79393,0.00000,0.00000,-0.00000,0.37568,-0.15409,-0.58330,-0.55011,115.38670,-0.19057,0.53445,-0.00116,-0.00495,0.84518,1,0,
06.29 17:04:10:045,41806,0.04143,-0.08405,9.78770,0.00000,0.00000,-0.00000,0.37567,-0.15415,-0.58032,-0.55084,115.38467,-0.19041,0.53447,-0.00116,-0.00495,0.84518,1,0,
06.29 17:04:10:055,41807,0.04342,-0.09048,9.80358,0.00000,0.00000,-0.00000,0.37568,-0.15511,-0.58231,-0.55074,115.38461,-0.18970,0.53447,-0.00117,-0.00495,0.84518,1,0,
06.29 17:04:10:065,41808,0.02925,-0.09289,9.79159,0.00000,0.00000,-0.00000,0.37666,-0.15713,-0.58132,-0.55136,115.38313,-0.18903,0.53448,-0.00118,-0.00495,0.84517,1,0,
06.29 17:04:10:077,41809,0.01996,-0.06400,9.80313,0.00000,0.00000,-0.00000,0.37567,-0.15415,-0.58032,-0.55245,115.38060,-0.18915,0.53450,-0.00118,-0.00496,0.84516,1,0,
06.29 17:04:10:086,41810,0.03277,-0.07400,9.80098,0.00000,0.00000,-0.00000,0.37666,-0.15464,-0.58081,-0.55187,115.37974,-0.18953,0.53450,-0.00118,-0.00495,0.84515,1,0,
06.29 17:04:10:094,41811,0.03328,-0.09082,9.79865,0.00000,0.00000,-0.00000,0.37516,-0.15468,-0.57883,-0.55385,115.37836,-0.18994,0.53451,-0.00118,-0.00497,0.84515,1,0,
06.29 17:04:10:105,41812,0.04714,-0.07917,9.79698,0.00000,0.00000,-0.00000,0.37717,-0.15210,-0.58279,-0.55430,115.37869,-0.18968,0.53451,-0.00119,-0.00497,0.84515,1,0,
06.29 17:04:10:115,41813,0.04485,-0.08784,9.79953,0.00000,0.00000,-0.00000,0.37567,-0.15564,-0.58082,-0.55265,115.37913,-0.18986,0.53451,-0.00118,-0.00496,0.84515,1,0,
06.29 17:04:10:125,41814,0.03304,-0.08728,9.77569,0.00000,0.00000,-0.00000,0.37617,-0.15362,-0.58180,-0.55039,115.37622,-0.19044,0.53453,-0.00116,-0.00495,0.84514,1,0,
06.29 17:04:10:135,41815,0.03895,-0.09407,9.79109,0.00000,0.00000,-0.00000,0.37715,-0.15515,-0.58031,-0.55003,115.37592,-0.19040,0.53453,-0.00116,-0.00494,0.84513,1,0,
06.29 17:04:10:146,41816,0.01922,-0.06866,9.80322,0.00000,0.00000,-0.00000,0.37567,-0.15412,-0.58181,-0.54871,115.37454,-0.18981,0.53454,-0.00116,-0.00493,0.84513,1,0,
06.29 17:04:10:156,41817,0.01607,-0.08669,9.79917,0.00000,0.00000,-0.00000,0.37419,-0.15412,-0.58232,-0.54849,115.37356,-0.19123,0.53455,-0.00115,-0.00494,0.84512,1,0,
06.29 17:04:10:166,41818,0.01756,-0.07049,9.80728,0.00000,0.00000,-0.00000,0.37566,-0.15417,-0.57932,-0.54815,115.36995,-0.19028,0.53457,-0.00115,-0.00493,0.84511,1,0,
06.29 17:04:10:175,41819,-0.00630,-0.07265,9.81081,0.00000,0.00000,-0.00000,0.37717,-0.15559,-0.58330,-0.54842,115.36980,-0.19086,0.53457,-0.00115,-0.00493,0.84511,1,0,
06.29 17:04:10:186,41820,0.02330,-0.08904,9.80136,0.00000,0.00000,-0.00000,0.37568,-0.15559,-0.58331,-0.54887,115.36778,-0.19268,0.53459,-0.00114,-0.00495,0.84510,1,0,
06.29 17:04:10:195,41821,0.04332,-0.08819,9.79664,0.00000,0.00000,-0.00000,0.37617,-0.15412,-0.58181,-0.54813,115.36884,-0.19252,0.53458,-0.00114,-0.00494,0.84510,1,0,
06.29 17:04:10:205,41822,0.05517,-0.11599,9.79726,0.00000,0.00000,-0.00000,0.37815,-0.15712,-0.58130,-0.54925,115.36807,-0.19293,0.53459,-0.00114,-0.00495,0.84510,1,0,
06.29 17:04:10:215,41823,0.03444,-0.08857,9.80525,0.00000,0.00000,-0.00000,0.37617,-0.15611,-0.58231,-0.54851,115.37164,-0.19236,0.53456,-0.00114,-0.00494,0.84511,1,0,
06.29 17:04:10:224,41824,0.03618,-0.06000,9.77900,0.00000,0.00000,-0.00000,0.37617,-0.15614,-0.58082,-0.54827,115.37587,-0.19155,0.53453,-0.00114,-0.00494,0.84513,1,0,
06.29 17:04:10:237,41825,0.04179,-0.07762,9.79791,0.00000,0.00000,-0.00000,0.37765,-0.15464,-0.58080,-0.54846,115.37618,-0.19139,0.53453,-0.00115,-0.00494,0.84514,1,0,
06.29 17:04:10:246,41826,0.04543,-0.08622,9.79764,0.00000,0.00000,-0.00000,0.37963,-0.15516,-0.57929,-0.54877,115.37785,-0.19126,0.53452,-0.00115,-0.00494,0.84514,1,0,
06.29 17:04:10:255,41827,0.03709,-0.06593,9.79631,0.00000,0.00000,-0.00000,0.37666,-0.15565,-0.58031,-0.54717,115.37695,-0.19086,0.53452,-0.00114,-0.00493,0.84514,1,0,
06.29 17:04:10:265,41828,0.02963,-0.08456,9.80546,0.00000,0.00000,-0.00000,0.37617,-0.15362,-0.58180,-0.54989,115.37600,-0.19124,0.53453,-0.00115,-0.00495,0.84513,1,0,
06.29 17:04:10:275,41829,0.04013,-0.09162,9.80563,0.00000,0.00000,-0.00000,0.37567,-0.15664,-0.58082,-0.55111,115.37758,-0.19124,0.53452,-0.00116,-0.00496,0.84514,1,0,
06.29 17:04:10:285,41830,0.02682,-0.08020,9.78806,0.00000,0.00000,-0.00000,0.37618,-0.15409,-0.58330,-0.55079,115.37595,-0.19139,0.53453,-0.00116,-0.00495,0.84513,1,0,
06.29 17:04:10:295,41831,0.03438,-0.08207,9.80568,0.00000,0.00000,-0.00000,0.37666,-0.15565,-0.58031,-0.55180,115.37651,-0.19116,0.53453,-0.00116,-0.00496,0.84514,1,0,
06.29 17:04:10:306,41832,0.02289,-0.08087,9.79722,0.00000,0.00000,-0.00000,0.37369,-0.15563,-0.58183,-0.55019,115.37505,-0.19083,0.53454,-0.00116,-0.00495,0.84513,1,0,
06.29 17:04:10:316,41833,0.03213,-0.08241,9.78889,0.00000,0.00000,-0.00000,0.37567,-0.15415,-0.58032,-0.55083,115.37389,-0.19100,0.53454,-0.00116,-0.00495,0.84512,1,0,
06.29 17:04:10:325,41834,0.02911,-0.07354,9.80017,0.00000,0.00000,-0.00000,0.37715,-0.15467,-0.57931,-0.55067,115.37350,-0.19057,0.53455,-0.00116,-0.00495,0.84512,1,0,
06.29 17:04:10:335,41835,0.04480,-0.05890,9.79176,0.00000,0.00000,-0.00000,0.37616,-0.15666,-0.57982,-0.55041,115.37364,-0.19016,0.53455,-0.00117,-0.00495,0.84512,1,0,
06.29 17:04:10:345,41836,0.05399,-0.07860,9.80177,0.00000,0.00000,-0.00000,0.37665,-0.15517,-0.57932,-0.54843,115.37388,-0.18973,0.53454,-0.00116,-0.00493,0.84512,1,0,
06.29 17:04:10:355,41837,0.03878,-0.10155,9.81150,0.00000,0.00000,-0.00000,0.37616,-0.15514,-0.58081,-0.55000,115.37597,-0.18935,0.53453,-0.00117,-0.00494,0.84513,1,0,
06.29 17:04:10:366,41838,0.04011,-0.07940,9.79497,0.00000,0.00000,-0.00000,0.37517,-0.15615,-0.58033,-0.54999,115.37492,-0.18901,0.53454,-0.00117,-0.00494,0.84513,1,0,
06.29 17:04:10:375,41839,0.03194,-0.09789,9.79786,0.00000,0.00000,-0.00000,0.37716,-0.15464,-0.58080,-0.55044,115.37283,-0.18890,0.53455,-0.00117,-0.00494,0.84512,1,0,
06.29 17:04:10:385,41840,0.03685,-0.06830,9.78455,0.00000,0.00000,-0.00000,0.37815,-0.15612,-0.58130,-0.55185,115.37235,-0.18910,0.53456,-0.00118,-0.00495,0.84512,1,0,
06.29 17:04:10:397,41841,0.05345,-0.09579,9.79142,0.00000,0.00000,-0.00000,0.37766,-0.15561,-0.58180,-0.55105,115.36898,-0.18920,0.53458,-0.00118,-0.00495,0.84510,1,0,
06.29 17:04:10:406,41842,0.04256,-0.07282,9.80148,0.00000,0.00000,-0.00000,0.37667,-0.15411,-0.58230,-0.55129,115.36916,-0.18882,0.53458,-0.00118,-0.00495,0.84510,1,0,
06.29 17:04:10:415,41843,0.01975,-0.07360,9.78973,0.00000,0.00000,-0.00000,0.37864,-0.15515,-0.57980,-0.54994,115.36845,-0.18913,0.53458,-0.00117,-0.00494,0.84510,1,0,
06.29 17:04:10:425,41844,0.02634,-0.07937,9.81007,0.00000,0.00000,-0.00000,0.37666,-0.15614,-0.58081,-0.55080,115.37149,-0.19010,0.53456,-0.00117,-0.00495,0.84511,1,0,
06.29 17:04:10:435,41845,0.05197,-0.07901,9.79738,0.00000,0.00000,-0.00000,0.37715,-0.15415,-0.58030,-0.54882,115.37057,-0.19096,0.53457,-0.00115,-0.00494,0.84511,1,0,
06.29 17:04:10:445,41846,0.03104,-0.08933,9.79533,0.00000,0.00000,-0.00000,0.37468,-0.15514,-0.58083,-0.54847,115.37151,-0.19112,0.53456,-0.00115,-0.00494,0.84511,1,0,
06.29 17:04:10:455,41847,0.03132,-0.08496,9.79848,0.00000,0.00000,-0.00000,0.37617,-0.15612,-0.58181,-0.54860,115.36879,-0.19120,0.53458,-0.00115,-0.00494,0.84510,1,0,
06.29 17:04:10:465,41848,0.03413,-0.09843,9.80220,0.00000,0.00000,-0.00000,0.37764,-0.15568,-0.57881,-0.55127,115.36861,-0.19106,0.53458,-0.00116,-0.00496,0.84510,1,0,
06.29 17:04:10:476,41849,0.03377,-0.08765,9.80985,0.00000,0.00000,-0.00000,0.37767,-0.15407,-0.58428,-0.55286,115.37248,-0.19005,0.53456,-0.00118,-0.00496,0.84512,1,0,
06.29 17:04:10:485,41850,0.03659,-0.08201,9.79347,0.00000,0.00000,-0.00000,0.37567,-0.15465,-0.58032,-0.55401,115.37234,-0.19048,0.53456,-0.00118,-0.00497,0.84512,1,0,
06.29 17:04:10:496,41851,0.01799,-0.10501,9.80577,0.00000,0.00000,-0.00000,0.37715,-0.15517,-0.57931,-0.55576,115.37452,-0.19021,0.53454,-0.00119,-0.00499,0.84513,1,0,
06.29 17:04:10:505,41852,0.03248,-0.08407,9.80010,0.00000,0.00000,-0.00000,0.37717,-0.15459,-0.58329,-0.55667,115.37360,-0.19059,0.53455,-0.00119,-0.00499,0.84512,1,0,
06.29 17:04:10:515,41853,0.02760,-0.07948,9.79676,0.00000,0.00000,-0.00000,0.37717,-0.15410,-0.58279,-0.55805,115.37406,-0.19169,0.53454,-0.00119,-0.00501,0.84513,1,0,
06.29 17:04:10:526,41854,0.03414,-0.08506,9.81161,0.00000,0.00000,-0.00000,0.37668,-0.15557,-0.58430,-0.56138,115.37520,-0.19189,0.53454,-0.00120,-0.00504,0.84513,1,0,
06.29 17:04:10:535,41855,0.02772,-0.07892,9.79102,0.00000,0.00000,-0.00000,0.37717,-0.15460,-0.58280,-0.55905,115.37345,-0.19261,0.53455,-0.00119,-0.00502,0.84512,1,0,
06.29 17:04:10:546,41856,0.02042,-0.10166,9.80118,0.00000,0.00000,-0.00000,0.37765,-0.15467,-0.57931,-0.55892,115.37244,-0.19294,0.53456,-0.00118,-0.00502,0.84512,1,0,
06.29 17:04:10:555,41857,0.03485,-0.08958,9.80241,0.00000,0.00000,-0.00000,0.37617,-0.15562,-0.58181,-0.55874,115.37307,-0.19165,0.53455,-0.00119,-0.00501,0.84512,1,0,
06.29 17:04:10:565,41858,0.03915,-0.05993,9.80220,0.00000,0.00000,-0.00000,0.37764,-0.15518,-0.57881,-0.55945,115.37442,-0.19189,0.53454,-0.00119,-0.00502,0.84513,1,0,
06.29 17:04:10:575,41859,0.02567,-0.09091,9.80270,0.00000,0.00000,-0.00000,0.37717,-0.15509,-0.58329,-0.56120,115.37455,-0.19239,0.53454,-0.00120,-0.00504,0.84513,1,0,
06.29 17:04:10:585,41860,0.02520,-0.09329,9.79400,0.00000,0.00000,-0.00000,0.37765,-0.15515,-0.58030,-0.56183,115.37557,-0.19283,0.53453,-0.00120,-0.00504,0.84513,1,0,
06.29 17:04:10:596,41861,0.02702,-0.09290,9.78220,0.00000,0.00000,-0.00000,0.37915,-0.15259,-0.58277,-0.56225,115.37609,-0.19218,0.53453,-0.00121,-0.00504,0.84513,1,0,
06.29 17:04:10:605,41862,0.02803,-0.09267,9.79979,0.00000,0.00000,-0.00000,0.37519,-0.15458,-0.58381,-0.56230,115.36996,-0.19312,0.53457,-0.00120,-0.00505,0.84511,1,0,
06.29 17:04:10:615,41863,0.05381,-0.08452,9.78785,0.00000,0.00000,-0.00000,0.37866,-0.15559,-0.58279,-0.56184,115.37164,-0.19283,0.53456,-0.00120,-0.00504,0.84511,1,0,
06.29 17:04:10:625,41864,0.05390,-0.07708,9.80885,0.00000,0.00000,-0.00000,0.37717,-0.15657,-0.58380,-0.56185,115.37099,-0.19313,0.53457,-0.00120,-0.00504,0.84511,1,0,
06.29 17:04:10:635,41865,0.02057,-0.08604,9.79888,0.00000,0.00000,-0.00000,0.37618,-0.15758,-0.58381,-0.56363,115.37193,-0.19311,0.53456,-0.00121,-0.00506,0.84512,1,0,
06.29 17:04:10:645,41866,0.03494,-0.06979,9.78885,0.00000,0.00000,-0.00000,0.37865,-0.15563,-0.58080,-0.56291,115.37499,-0.19345,0.53454,-0.00120,-0.00505,0.84513,1,0,
06.29 17:04:10:656,41867,0.03902,-0.06638,9.80165,0.00000,0.00000,-0.00000,0.37618,-0.15610,-0.58281,-0.56248,115.37330,-0.19309,0.53455,-0.00120,-0.00505,0.84512,1,0,
06.29 17:04:10:665,41868,0.03123,-0.08292,9.79412,0.00000,0.00000,-0.00000,0.37865,-0.15413,-0.58079,-0.56336,115.37157,-0.19243,0.53456,-0.00121,-0.00505,0.84511,1,0,
06.29 17:04:10:675,41869,0.02841,-0.10389,9.79762,0.00000,0.00000,-0.00000,0.37717,-0.15459,-0.58329,-0.56346,115.36991,-0.19196,0.53457,-0.00121,-0.00505,0.84511,1,0,
06.29 17:04:10:686,41870,-0.00086,-0.08073,9.80344,0.00000,0.00000,-0.00000,0.37617,-0.15511,-0.58231,-0.56521,115.37080,-0.19235,0.53457,-0.00122,-0.00507,0.84511,1,0,
06.29 17:04:10:695,41871,0.04396,-0.07733,9.80432,0.00000,0.00000,-0.00000,0.37667,-0.15409,-0.58329,-0.56607,115.36827,-0.19276,0.53459,-0.00122,-0.00507,0.84510,1,0,
06.29 17:04:10:705,41872,0.03732,-0.07574,9.79750,0.00000,0.00000,-0.00000,0.37717,-0.15610,-0.58280,-0.56685,115.36693,-0.19255,0.53460,-0.00122,-0.00508,0.84509,1,0,
06.29 17:04:10:715,41873,0.03264,-0.08459,9.79023,0.00000,0.00000,-0.00000,0.37717,-0.15660,-0.58280,-0.56643,115.36713,-0.19290,0.53459,-0.00122,-0.00508,0.84509,1,0,
06.29 17:04:10:725,41874,0.05985,-0.06822,9.79333,0.00000,0.00000,-0.00000,0.37617,-0.15410,-0.58280,-0.56774,115.36571,-0.19345,0.53460,-0.00122,-0.00509,0.84509,1,0,
06.29 17:04:10:735,41875,0.02125,-0.05863,9.80814,0.00000,0.00000,-0.00000,0.37718,-0.15607,-0.58429,-0.56770,115.36683,-0.19331,0.53460,-0.00122,-0.00509,0.84509,1,0,
06.29 17:04:10:745,41876,0.04502,-0.08213,9.78415,0.00000,0.00000,-0.00000,0.37767,-0.15557,-0.58379,-0.56657,115.36481,-0.19320,0.53461,-0.00122,-0.00508,0.84508,1,0,
06.29 17:04:10:755,41877,0.04003,-0.08800,9.80127,0.00000,0.00000,-0.00000,0.37766,-0.15610,-0.58230,-0.56710,115.36343,-0.19373,0.53462,-0.00122,-0.00509,0.84508,1,0,
06.29 17:04:10:766,41878,0.02464,-0.09180,9.79903,0.00000,0.00000,-0.00000,0.37866,-0.15559,-0.58279,-0.56640,115.36142,-0.19393,0.53464,-0.00121,-0.00508,0.84507,1,0,
06.29 17:04:10:776,41879,0.02018,-0.08281,9.80091,0.00000,0.00000,-0.00000,0.37718,-0.15554,-0.58578,-0.56638,115.36028,-0.19404,0.53465,-0.00121,-0.00508,0.84506,1,0,
06.29 17:04:10:786,41880,0.01678,-0.09707,9.80761,0.00000,0.00000,-0.00000,0.37716,-0.15664,-0.58081,-0.56714,115.36179,-0.19350,0.53463,-0.00122,-0.00509,0.84507,1,0,
06.29 17:04:10:796,41881,0.01422,-0.09187,9.79095,0.00000,0.00000,-0.00000,0.37915,-0.15460,-0.58228,-0.56825,115.36372,-0.19314,0.53462,-0.00123,-0.00509,0.84508,1,0,
06.29 17:04:10:806,41882,0.04410,-0.09058,9.80165,0.00000,0.00000,-0.00000,0.37666,-0.15613,-0.58131,-0.56769,115.36186,-0.19410,0.53463,-0.00122,-0.00509,0.84507,1,0,
06.29 17:04:10:815,41883,0.05909,-0.09037,9.79030,0.00000,0.00000,-0.00000,0.37815,-0.15363,-0.58129,-0.56776,115.36229,-0.19450,0.53463,-0.00121,-0.00509,0.84507,1,0,
06.29 17:04:10:825,41884,0.05541,-0.07239,9.79311,0.00000,0.00000,-0.00000,0.37617,-0.15361,-0.58230,-0.56715,115.36169,-0.19473,0.53463,-0.00121,-0.00509,0.84507,1,0,
06.29 17:04:10:835,41885,0.03008,-0.06549,9.78508,0.00000,0.00000,-0.00000,0.37867,-0.15504,-0.58527,-0.56781,115.36385,-0.19460,0.53462,-0.00121,-0.00510,0.84508,1,0,
06.29 17:04:10:846,41886,0.04930,-0.05727,9.80041,0.00000,0.00000,-0.00000,0.37965,-0.15609,-0.58278,-0.56913,115.36373,-0.19383,0.53462,-0.00123,-0.00510,0.84508,1,0,
06.29 17:04:10:855,41887,0.03433,-0.06152,9.80082,0.00000,0.00000,-0.00000,0.38063,-0.15512,-0.58128,-0.56842,115.36411,-0.19459,0.53462,-0.00122,-0.00510,0.84508,1,0,
06.29 17:04:10:866,41888,0.05167,-0.05874,9.80697,0.00000,0.00000,-0.00000,0.37815,-0.15265,-0.58029,-0.56783,115.36115,-0.19557,0.53464,-0.00121,-0.00510,0.84506,1,0,
06.29 17:04:10:875,41889,0.04246,-0.07031,9.79655,0.00000,0.00000,-0.00000,0.37965,-0.15560,-0.58228,-0.56974,115.36135,-0.19545,0.53464,-0.00122,-0.00511,0.84507,1,0,
06.29 17:04:10:885,41890,0.02502,-0.07999,9.79469,0.00000,0.00000,-0.00000,0.37865,-0.15410,-0.58228,-0.57047,115.36196,-0.19560,0.53463,-0.00122,-0.00512,0.84507,1,0,
06.29 17:04:10:895,41891,0.03022,-0.09873,9.77828,0.00000,0.00000,-0.00000,0.37616,-0.15414,-0.58081,-0.57233,115.36236,-0.19584,0.53463,-0.00123,-0.00513,0.84507,1,0,
06.29 17:04:10:906,41892,0.04181,-0.09448,9.78706,0.00000,0.00000,-0.00000,0.37716,-0.15361,-0.58229,-0.57138,115.36250,-0.19589,0.53463,-0.00122,-0.00513,0.84507,1,0,
06.29 17:04:10:915,41893,0.03415,-0.09161,9.80375,0.00000,0.00000,-0.00000,0.37866,-0.15356,-0.58427,-0.57016,115.36326,-0.19661,0.53462,-0.00121,-0.00512,0.84507,1,0,
06.29 17:04:10:926,41894,0.02938,-0.08494,9.80334,0.00000,0.00000,-0.00000,0.37915,-0.15560,-0.58229,-0.57040,115.36449,-0.19677,0.53461,-0.00121,-0.00512,0.84508,1,0,
06.29 17:04:10:935,41895,0.04700,-0.06926,9.80020,0.00000,0.00000,-0.00000,0.37816,-0.15610,-0.58229,-0.56918,115.36469,-0.19725,0.53461,-0.00120,-0.00512,0.84508,1,0,
06.29 17:04:10:947,41896,0.03908,-0.08648,9.80077,0.00000,0.00000,-0.00000,0.37766,-0.15563,-0.58130,-0.56975,115.36650,-0.19722,0.53460,-0.00120,-0.00512,0.84509,1,0,
06.29 17:04:10:956,41897,0.05059,-0.06701,9.78916,0.00000,0.00000,-0.00000,0.37816,-0.15361,-0.58229,-0.57161,115.36623,-0.19737,0.53460,-0.00121,-0.00514,0.84509,1,0,
06.29 17:04:10:965,41898,0.03875,-0.09570,9.80425,0.00000,0.00000,-0.00000,0.37767,-0.15309,-0.58328,-0.57188,115.36558,-0.19832,0.53461,-0.00121,-0.00514,0.84508,1,0,
06.29 17:04:10:975,41899,0.04769,-0.08972,9.80098,0.00000,0.00000,-0.00000,0.37617,-0.15361,-0.58230,-0.57135,115.36552,-0.19842,0.53461,-0.00120,-0.00514,0.84508,1,0,
06.29 17:04:10:985,41900,0.04207,-0.08114,9.81092,0.00000,0.00000,-0.00000,0.37915,-0.15559,-0.58278,-0.57276,115.36637,-0.19875,0.53460,-0.00121,-0.00515,0.84509,1,0,
06.29 17:04:10:996,41901,0.02670,-0.07908,9.80082,0.00000,0.00000,-0.00000,0.37816,-0.15708,-0.58329,-0.57089,115.36582,-0.19734,0.53460,-0.00121,-0.00513,0.84509,1,0,
06.29 17:04:11:006,41902,0.05092,-0.08380,9.80253,0.00000,0.00000,-0.00000,0.37619,-0.15556,-0.58480,-0.57129,115.36949,-0.19748,0.53458,-0.00121,-0.00513,0.84510,1,0,
06.29 17:04:11:016,41903,0.03631,-0.08507,9.79879,0.00000,0.00000,-0.00000,0.37765,-0.15565,-0.58031,-0.56963,115.36980,-0.19783,0.53457,-0.00120,-0.00512,0.84510,1,0,
06.29 17:04:11:025,41904,0.04686,-0.08549,9.79824,0.00000,0.00000,-0.00000,0.37669,-0.15554,-0.58579,-0.57014,115.37180,-0.19824,0.53456,-0.00120,-0.00513,0.84511,1,0,
06.29 17:04:11:035,41905,0.03194,-0.06805,9.79788,0.00000,0.00000,-0.00000,0.37915,-0.15460,-0.58228,-0.57009,115.37347,-0.19751,0.53455,-0.00120,-0.00513,0.84512,1,0,
06.29 17:04:11:046,41906,0.04365,-0.09275,9.79462,0.00000,0.00000,-0.00000,0.38014,-0.15260,-0.58227,-0.56982,115.37330,-0.19757,0.53455,-0.00120,-0.00512,0.84512,1,0,
06.29 17:04:11:055,41907,0.03573,-0.07714,9.79359,0.00000,0.00000,-0.00000,0.37866,-0.15758,-0.58329,-0.57086,115.36771,-0.19732,0.53459,-0.00121,-0.00513,0.84509,1,0,
06.29 17:04:11:065,41908,0.02787,-0.09169,9.79731,0.00000,0.00000,-0.00000,0.37866,-0.15556,-0.58428,-0.57125,115.36847,-0.19645,0.53458,-0.00122,-0.00513,0.84510,1,0,
06.29 17:04:11:076,41909,0.02880,-0.08546,9.79576,0.00000,0.00000,-0.00000,0.38015,-0.15509,-0.58277,-0.57145,115.36841,-0.19639,0.53459,-0.00122,-0.00513,0.84510,1,0,
06.29 17:04:11:085,41910,0.03103,-0.09186,9.79166,0.00000,0.00000,-0.00000,0.37915,-0.15509,-0.58278,-0.57162,115.37062,-0.19645,0.53457,-0.00122,-0.00513,0.84511,1,0,
06.29 17:04:11:096,41911,0.05348,-0.09221,9.78263,0.00000,0.00000,-0.00000,0.38164,-0.15555,-0.58426,-0.57189,115.37022,-0.19747,0.53457,-0.00121,-0.00514,0.84511,1,0,
06.29 17:04:11:106,41912,0.05723,-0.11536,9.78937,0.00000,0.00000,-0.00000,0.37717,-0.15511,-0.58230,-0.57200,115.36794,-0.19684,0.53459,-0.00122,-0.00514,0.84510,1,0,
06.29 17:04:11:116,41913,0.03528,-0.10088,9.77755,0.00000,0.00000,-0.00000,0.37864,-0.15717,-0.57881,-0.57254,115.36885,-0.19777,0.53458,-0.00121,-0.00515,0.84510,1,0,
06.29 17:04:11:126,41914,0.03766,-0.06946,9.80689,0.00000,0.00000,-0.00000,0.37817,-0.15606,-0.58429,-0.57235,115.37769,-0.19888,0.53452,-0.00120,-0.00515,0.84514,1,0,
06.29 17:04:11:136,41915,0.04274,-0.07535,9.79991,0.00000,0.00000,-0.00000,0.37965,-0.15460,-0.58228,-0.57154,115.37728,-0.19987,0.53452,-0.00119,-0.00515,0.84514,1,0,
06.29 17:04:11:146,41916,0.04156,-0.07699,9.77957,0.00000,0.00000,-0.00000,0.37567,-0.15262,-0.58180,-0.57110,115.37698,-0.19904,0.53452,-0.00120,-0.00514,0.84514,1,0,
06.29 17:04:11:155,41917,0.04501,-0.08075,9.79719,0.00000,0.00000,-0.00000,0.37717,-0.15611,-0.58230,-0.57167,115.37971,-0.19969,0.53450,-0.00119,-0.00515,0.84515,1,0,
06.29 17:04:11:165,41918,0.02408,-0.09779,9.79390,0.00000,0.00000,-0.00000,0.38064,-0.15658,-0.58327,-0.57264,115.37716,-0.20077,0.53452,-0.00119,-0.00516,0.84514,1,0,
06.29 17:04:11:175,41919,0.01783,-0.07746,9.80673,0.00000,0.00000,-0.00000,0.37866,-0.15507,-0.58378,-0.57464,115.37768,-0.20084,0.53452,-0.00120,-0.00517,0.84514,1,0,
06.29 17:04:11:186,41920,0.03366,-0.07640,9.79293,0.00000,0.00000,-0.00000,0.37864,-0.15464,-0.58029,-0.57368,115.37780,-0.20187,0.53452,-0.00119,-0.00517,0.84514,1,0,
06.29 17:04:11:195,41921,0.04103,-0.09487,9.78902,0.00000,0.00000,-0.00000,0.37766,-0.15360,-0.58279,-0.57260,115.37648,-0.20220,0.53453,-0.00118,-0.00517,0.84514,1,0,
06.29 17:04:11:205,41922,0.03447,-0.08569,9.80377,0.00000,0.00000,-0.00000,0.37864,-0.15465,-0.57980,-0.57386,115.37910,-0.20276,0.53451,-0.00118,-0.00518,0.84515,1,0,
06.29 17:04:11:216,41923,0.05834,-0.06624,9.79278,0.00000,0.00000,-0.00000,0.37866,-0.15508,-0.58328,-0.57270,115.37950,-0.20340,0.53450,-0.00117,-0.00517,0.84515,1,0,
06.29 17:04:11:225,41924,0.02571,-0.08529,9.79297,0.00000,0.00000,-0.00000,0.37766,-0.15413,-0.58130,-0.57058,115.37887,-0.20392,0.53451,-0.00116,-0.00516,0.84515,1,0,
06.29 17:04:11:235,41925,0.02030,-0.09465,9.78746,0.00000,0.00000,-0.00000,0.37816,-0.15510,-0.58229,-0.57039,115.37772,-0.20384,0.53452,-0.00116,-0.00516,0.84514,1,0,
06.29 17:04:11:245,41926,0.01121,-0.08533,9.79803,0.00000,0.00000,-0.00000,0.37817,-0.15506,-0.58428,-0.57037,115.37830,-0.20391,0.53451,-0.00116,-0.00516,0.84514,1,0,
06.29 17:04:11:255,41927,0.02148,-0.08182,9.80730,0.00000,0.00000,-0.00000,0.38014,-0.15860,-0.58179,-0.57107,115.37818,-0.20258,0.53451,-0.00117,-0.00516,0.84514,1,0,
06.29 17:04:11:265,41928,0.01802,-0.08264,9.81024,0.00000,0.00000,-0.00000,0.37617,-0.15461,-0.58231,-0.57187,115.38068,-0.20360,0.53449,-0.00117,-0.00517,0.84516,1,0,
06.29 17:04:11:275,41929,0.05407,-0.07230,9.78842,0.00000,0.00000,-0.00000,0.37419,-0.15511,-0.58282,-0.57273,115.38336,-0.20504,0.53448,-0.00116,-0.00518,0.84517,1,0,
06.29 17:04:11:285,41930,0.03993,-0.08749,9.78208,0.00000,0.00000,-0.00000,0.37667,-0.15611,-0.58231,-0.57320,115.38326,-0.20599,0.53448,-0.00115,-0.00519,0.84517,1,0,
06.29 17:04:11:296,41931,0.05245,-0.08142,9.79531,0.00000,0.00000,-0.00000,0.37469,-0.15360,-0.58331,-0.57575,115.38569,-0.20578,0.53446,-0.00117,-0.00521,0.84518,1,0,
06.29 17:04:11:305,41932,0.01871,-0.07507,9.78377,0.00000,0.00000,-0.00000,0.37667,-0.15662,-0.58181,-0.57607,115.38630,-0.20623,0.53445,-0.00117,-0.00521,0.84518,1,0,
06.29 17:04:11:315,41933,0.03363,-0.09010,9.79652,0.00000,0.00000,-0.00000,0.37716,-0.15461,-0.58230,-0.57675,115.38411,-0.20662,0.53447,-0.00117,-0.00522,0.84517,1,0,
06.29 17:04:11:325,41934,0.04900,-0.07899,9.79514,0.00000,0.00000,-0.00000,0.37766,-0.15662,-0.58131,-0.57742,115.38326,-0.20742,0.53448,-0.00116,-0.00523,0.84517,1,0,
06.29 17:04:11:336,41935,0.03484,-0.08063,9.79126,0.00000,0.00000,-0.00000,0.38014,-0.15762,-0.58129,-0.57580,115.38287,-0.20675,0.53448,-0.00116,-0.00521,0.84516,1,0,
06.29 17:04:11:345,41936,0.04464,-0.07793,9.80258,0.00000,0.00000,-0.00000,0.37667,-0.15611,-0.58231,-0.57377,115.38267,-0.20560,0.53448,-0.00116,-0.00519,0.84516,1,0,
06.29 17:04:11:356,41937,0.04221,-0.07235,9.79600,0.00000,0.00000,-0.00000,0.37716,-0.15314,-0.58080,-0.57389,115.38560,-0.20503,0.53446,-0.00116,-0.00519,0.84518,1,0,
06.29 17:04:11:366,41938,0.03870,-0.07078,9.81252,0.00000,0.00000,-0.00000,0.37816,-0.15559,-0.58279,-0.57378,115.38830,-0.20569,0.53444,-0.00116,-0.00519,0.84519,1,0,
06.29 17:04:11:376,41939,0.04483,-0.08220,9.79230,0.00000,0.00000,-0.00000,0.37718,-0.15407,-0.58429,-0.57599,115.38914,-0.20529,0.53443,-0.00117,-0.00521,0.84519,1,0,
06.29 17:04:11:385,41940,0.04851,-0.09317,9.78787,0.00000,0.00000,-0.00000,0.37816,-0.15560,-0.58229,-0.57648,115.38953,-0.20512,0.53443,-0.00118,-0.00521,0.84520,1,0,
06.29 17:04:11:395,41941,0.03926,-0.09498,9.80926,0.00000,0.00000,-0.00000,0.37767,-0.15556,-0.58429,-0.57614,115.38885,-0.20473,0.53443,-0.00118,-0.00520,0.84519,1,0,
06.29 17:04:11:406,41942,0.01554,-0.08453,9.78816,0.00000,0.00000,-0.00000,0.37866,-0.15658,-0.58329,-0.57621,115.38797,-0.20506,0.53444,-0.00117,-0.00521,0.84519,1,0,
06.29 17:04:11:416,41943,0.03472,-0.07669,9.78944,0.00000,0.00000,-0.00000,0.37617,-0.15562,-0.58181,-0.57525,115.39227,-0.20497,0.53441,-0.00117,-0.00520,0.84521,1,0,
06.29 17:04:11:426,41944,0.02104,-0.08209,9.79404,0.00000,0.00000,-0.00000,0.37718,-0.15457,-0.58429,-0.57632,115.39301,-0.20619,0.53440,-0.00117,-0.00521,0.84521,1,0,
06.29 17:04:11:436,41945,0.04227,-0.08143,9.78084,0.00000,0.00000,-0.00000,0.37915,-0.15511,-0.58179,-0.57788,115.39098,-0.20664,0.53442,-0.00117,-0.00523,0.84520,1,0,
06.29 17:04:11:446,41946,0.04959,-0.08370,9.78201,0.00000,0.00000,-0.00000,0.37767,-0.15109,-0.58328,-0.57775,115.39027,-0.20762,0.53442,-0.00116,-0.00523,0.84520,1,0,
06.29 17:04:11:455,41947,0.05867,-0.08283,9.80411,0.00000,0.00000,-0.00000,0.37617,-0.15511,-0.58231,-0.57744,115.39047,-0.20748,0.53442,-0.00116,-0.00523,0.84520,1,0,
06.29 17:04:11:466,41948,0.03183,-0.09668,9.79519,0.00000,0.00000,-0.00000,0.37667,-0.15510,-0.58280,-0.57783,115.39133,-0.20624,0.53442,-0.00117,-0.00522,0.84520,1,0,
06.29 17:04:11:475,41949,0.02421,-0.07539,9.79185,0.00000,0.00000,-0.00000,0.37569,-0.15456,-0.58480,-0.57881,115.39146,-0.20523,0.53442,-0.00119,-0.00523,0.84521,1,0,
06.29 17:04:11:486,41950,0.02985,-0.08097,9.81224,0.00000,0.00000,-0.00000,0.37865,-0.15560,-0.58229,-0.58020,115.38820,-0.20583,0.53444,-0.00119,-0.00524,0.84519,1,0,
06.29 17:04:11:495,41951,0.03050,-0.06913,9.79083,0.00000,0.00000,-0.00000,0.37520,-0.15455,-0.58530,-0.58014,115.38833,-0.20506,0.53444,-0.00119,-0.00524,0.84519,1,0,
06.29 17:04:11:506,41952,0.01353,-0.07620,9.79214,0.00000,0.00000,-0.00000,0.37617,-0.15511,-0.58231,-0.57743,115.38381,-0.20514,0.53447,-0.00118,-0.00522,0.84517,1,0,
06.29 17:04:11:515,41953,0.01565,-0.09377,9.77655,0.00000,0.00000,-0.00000,0.37766,-0.15413,-0.58130,-0.57826,115.38437,-0.20477,0.53447,-0.00119,-0.00522,0.84517,1,0,
06.29 17:04:11:526,41954,0.05915,-0.09873,9.80385,0.00000,0.00000,-0.00000,0.37616,-0.15565,-0.58032,-0.57708,115.38361,-0.20518,0.53447,-0.00118,-0.00521,0.84517,1,0,
06.29 17:04:11:536,41955,0.05673,-0.05782,9.76882,0.00000,0.00000,-0.00000,0.37816,-0.15460,-0.58229,-0.57654,115.38317,-0.20442,0.53448,-0.00118,-0.00521,0.84517,1,0,
06.29 17:04:11:545,41956,0.06117,-0.09867,9.81341,0.00000,0.00000,-0.00000,0.37467,-0.15665,-0.58033,-0.57768,115.38644,-0.20340,0.53445,-0.00119,-0.00521,0.84518,1,0,
06.29 17:04:11:555,41957,-0.02184,-0.05520,9.74772,0.00000,0.00000,-0.00000,0.37767,-0.15707,-0.58380,-0.57567,115.38657,-0.20132,0.53445,-0.00120,-0.00518,0.84518,1,0,
06.29 17:04:11:566,41958,0.03829,-0.07143,9.82196,0.00000,0.00000,-0.00000,0.37718,-0.15605,-0.58529,-0.57533,115.38671,-0.20455,0.53445,-0.00117,-0.00520,0.84518,1,0,
06.29 17:04:11:575,41959,0.06872,-0.11966,9.81538,0.00000,0.00000,-0.00000,0.37865,-0.15360,-0.58228,-0.57498,115.38569,-0.20649,0.53446,-0.00116,-0.00520,0.84518,1,0,
06.29 17:04:11:586,41960,-0.01541,-0.07117,9.76658,0.00000,0.00000,-0.00000,0.37766,-0.15513,-0.58130,-0.57518,115.38526,-0.20218,0.53446,-0.00119,-0.00519,0.84518,1,0,
06.29 17:04:11:595,41961,0.01764,-0.08311,9.78630,0.00000,0.00000,-0.00000,0.37865,-0.15611,-0.58179,-0.57468,115.38635,-0.20136,0.53445,-0.00120,-0.00518,0.84518,1,0,
06.29 17:04:11:606,41962,0.05568,-0.08284,9.79543,0.00000,0.00000,-0.00000,0.38014,-0.15560,-0.58228,-0.57408,115.38731,-0.20508,0.53445,-0.00116,-0.00519,0.84519,1,0,
06.29 17:04:11:615,41963,0.10394,-0.06278,9.82792,0.00000,0.00000,-0.00000,0.37666,-0.15613,-0.58131,-0.57315,115.38522,-0.20749,0.53446,-0.00114,-0.00520,0.84518,1,0,
06.29 17:04:11:625,41964,0.03835,-0.08766,9.79254,0.00000,0.00000,-0.00000,0.37567,-0.15663,-0.58132,-0.57348,115.38853,-0.20481,0.53444,-0.00116,-0.00519,0.84519,1,0,
06.29 17:04:11:635,41965,0.04318,-0.07183,9.77583,0.00000,0.00000,-0.00000,0.37817,-0.15505,-0.58478,-0.57436,115.39465,-0.20258,0.53439,-0.00118,-0.00518,0.84522,1,0,
06.29 17:04:11:645,41966,0.01693,-0.15054,9.79741,0.00000,0.00000,-0.00000,0.37815,-0.15163,-0.58128,-0.57266,115.39463,-0.20335,0.53439,-0.00117,-0.00517,0.84522,1,0,
06.29 17:04:11:655,41967,-0.01940,-0.08487,9.82776,0.00000,0.00000,-0.00000,0.37766,-0.15560,-0.58230,-0.57228,115.39880,-0.20137,0.53436,-0.00118,-0.00516,0.84524,1,0,
06.29 17:04:11:665,41968,-0.01075,-0.11457,9.79836,0.00000,0.00000,-0.00000,0.37816,-0.15261,-0.58228,-0.57196,115.39816,-0.20074,0.53437,-0.00119,-0.00515,0.84524,1,0,
06.29 17:04:11:676,41969,0.07029,0.00679,9.78277,0.00000,0.00000,-0.00000,0.37419,-0.15560,-0.58282,-0.57210,115.39310,-0.20389,0.53440,-0.00116,-0.00517,0.84521,1,0,
06.29 17:04:11:685,41970,0.14432,-0.02339,9.78543,0.00000,0.00000,-0.00000,0.37617,-0.15562,-0.58181,-0.57407,115.39685,-0.21024,0.53438,-0.00113,-0.00521,0.84523,1,0,
06.29 17:04:11:695,41971,0.08643,-0.09708,9.82619,0.00000,0.00000,-0.00000,0.37765,-0.15364,-0.58080,-0.57466,115.39603,-0.20647,0.53438,-0.00116,-0.00520,0.84523,1,0,
06.29 17:04:11:705,41972,-0.02950,-0.13143,9.79578,0.00000,0.00000,-0.00000,0.37517,-0.15315,-0.58082,-0.57622,115.39818,-0.19901,0.53437,-0.00122,-0.00518,0.84524,1,0,
06.29 17:04:11:716,41973,-0.08175,-0.10401,9.79262,0.00000,0.00000,-0.00000,0.37518,-0.15512,-0.58182,-0.57629,115.39803,-0.19672,0.53437,-0.00124,-0.00517,0.84524,1,0,
06.29 17:04:11:725,41974,0.00792,-0.07419,9.78689,0.00000,0.00000,-0.00000,0.37766,-0.15512,-0.58180,-0.57556,115.39135,-0.20126,0.53442,-0.00120,-0.00518,0.84520,1,0,
06.29 17:04:11:735,41975,0.09666,-0.05780,9.79366,0.00000,0.00000,-0.00000,0.37766,-0.15312,-0.58179,-0.57452,115.38935,-0.20782,0.53443,-0.00115,-0.00521,0.84520,1,0,
06.29 17:04:11:745,41976,0.09728,-0.02886,9.81364,0.00000,0.00000,-0.00000,0.37815,-0.15563,-0.58080,-0.57298,115.39175,-0.20741,0.53441,-0.00114,-0.00519,0.84521,1,0,
06.29 17:04:11:756,41977,0.02515,-0.09970,9.78406,0.00000,0.00000,-0.00000,0.37616,-0.15566,-0.57982,-0.55588,115.38445,-0.19385,0.53447,-0.00116,-0.00500,0.84517,1,0,
06.29 17:04:11:765,41978,-0.03590,-0.08744,9.81138,0.00000,0.00000,-0.00000,0.37666,-0.15764,-0.58082,-0.55474,115.38644,-0.19108,0.53445,-0.00118,-0.00498,0.84518,1,0,
06.29 17:04:11:775,41979,0.01878,-0.12520,9.75597,0.00000,0.00000,-0.00000,0.37368,-0.15467,-0.57984,-0.55551,115.38297,-0.19393,0.53448,-0.00116,-0.00500,0.84517,1,0,
06.29 17:04:11:786,41980,0.05117,-0.10558,9.81920,0.00000,0.00000,-0.00000,0.37567,-0.15562,-0.58182,-0.55532,115.38563,-0.19632,0.53446,-0.00114,-0.00501,0.84518,1,0,
06.29 17:04:11:795,41981,0.05944,-0.06933,9.79626,0.00000,0.00000,-0.00000,0.37617,-0.15360,-0.58280,-0.55579,115.38135,-0.19501,0.53449,-0.00115,-0.00501,0.84516,1,0,
06.29 17:04:11:806,41982,0.03074,-0.04868,9.79772,0.00000,0.00000,-0.00000,0.37766,-0.15462,-0.58180,-0.55653,115.37921,-0.19374,0.53451,-0.00117,-0.00501,0.84515,1,0,
06.29 17:04:11:816,41983,0.00726,-0.01890,9.83055,0.00000,0.00000,-0.00000,0.37568,-0.15360,-0.58280,-0.55480,115.37910,-0.19309,0.53451,-0.00116,-0.00499,0.84515,1,0,
06.29 17:04:11:826,41984,0.02782,-0.09506,9.78882,0.00000,0.00000,-0.00000,0.37666,-0.15413,-0.58130,-0.55456,115.38413,-0.19415,0.53447,-0.00115,-0.00500,0.84517,1,0,
06.29 17:04:11:835,41985,0.05487,-0.08602,9.78577,0.00000,0.00000,-0.00000,0.37765,-0.15564,-0.58080,-0.55385,115.38435,-0.19590,0.53447,-0.00114,-0.00500,0.84517,1,0,
06.29 17:04:11:845,41986,0.04691,-0.10543,9.77240,0.00000,0.00000,-0.00000,0.37765,-0.15516,-0.57981,-0.55283,115.38291,-0.19493,0.53448,-0.00114,-0.00499,0.84517,1,0,
06.29 17:04:11:855,41987,0.07093,-0.10380,9.80351,0.00000,0.00000,-0.00000,0.37716,-0.15464,-0.58080,-0.55360,115.38352,-0.19536,0.53447,-0.00114,-0.00499,0.84517,1,0,
06.29 17:04:11:866,41988,0.04145,-0.07220,9.81035,0.00000,0.00000,-0.00000,0.37816,-0.15409,-0.58328,-0.55209,115.38474,-0.19435,0.53446,-0.00114,-0.00498,0.84518,1,0,
06.29 17:04:11:876,41989,0.01268,-0.05417,9.80241,0.00000,0.00000,-0.00000,0.37766,-0.15659,-0.58280,-0.55131,115.38586,-0.19271,0.53446,-0.00115,-0.00497,0.84518,1,0,
06.29 17:04:11:886,41990,-0.01122,-0.04006,9.82306,0.00000,0.00000,-0.00000,0.37666,-0.15513,-0.58131,-0.55184,115.38528,-0.19193,0.53446,-0.00116,-0.00497,0.84518,1,0,
06.29 17:04:11:895,41991,0.01834,-0.10057,9.77452,0.00000,0.00000,-0.00000,0.37766,-0.15563,-0.58130,-0.55300,115.38578,-0.19372,0.53446,-0.00115,-0.00498,0.84518,1,0,
06.29 17:04:11:906,41992,0.02069,-0.08188,9.80160,0.00000,0.00000,-0.00000,0.37915,-0.15510,-0.58228,-0.55477,115.38587,-0.19513,0.53446,-0.00115,-0.00500,0.84518,1,0,
06.29 17:04:11:916,41993,0.04643,-0.10556,9.82588,0.00000,0.00000,-0.00000,0.37865,-0.15412,-0.58129,-0.55237,115.38553,-0.19529,0.53446,-0.00114,-0.00498,0.84518,1,0,
06.29 17:04:11:926,41994,0.05137,-0.11452,9.75080,0.00000,0.00000,-0.00000,0.37517,-0.15565,-0.58033,-0.55381,115.38669,-0.19652,0.53445,-0.00113,-0.00500,0.84518,1,0,
06.29 17:04:11:936,41995,0.03658,-0.09898,9.79490,0.00000,0.00000,-0.00000,0.37667,-0.15460,-0.58280,-0.55286,115.38395,-0.19563,0.53447,-0.00114,-0.00499,0.84517,1,0,
06.29 17:04:11:946,41996,0.00962,-0.04709,9.79786,0.00000,0.00000,-0.00000,0.37617,-0.15362,-0.58180,-0.55350,115.38187,-0.19505,0.53449,-0.00114,-0.00499,0.84516,1,0,
06.29 17:04:11:955,41997,0.02041,-0.08112,9.80422,0.00000,0.00000,-0.00000,0.37765,-0.15565,-0.58031,-0.55491,115.38295,-0.19615,0.53448,-0.00114,-0.00501,0.84517,1,0,
06.29 17:04:11:966,41998,0.01747,-0.06248,9.81317,0.00000,0.00000,-0.00000,0.37816,-0.15459,-0.58279,-0.55296,115.38109,-0.19605,0.53449,-0.00113,-0.00499,0.84516,1,0,
06.29 17:04:11:975,41999,0.01865,-0.09538,9.78089,0.00000,0.00000,-0.00000,0.37765,-0.15466,-0.57981,-0.55346,115.38107,-0.19569,0.53449,-0.00114,-0.00499,0.84516,1,0,
06.29 17:04:11:986,42000,0.01879,-0.09811,9.79781,0.00000,0.00000,-0.00000,0.37916,-0.15355,-0.58477,-0.55417,115.38081,-0.19543,0.53449,-0.00114,-0.00500,0.84516,1,0,
06.29 17:04:11:996,42001,0.03716,-0.09476,9.77068,0.00000,0.00000,-0.00000,0.37815,-0.15314,-0.58079,-0.55291,115.37971,-0.19672,0.53450,-0.00113,-0.00500,0.84515,1,0,
06.29 17:04:12:006,42002,0.05620,-0.07991,9.81197,0.00000,0.00000,-0.00000,0.38063,-0.15565,-0.57979,-0.55290,115.38031,-0.19752,0.53450,-0.00112,-0.00500,0.84515,1,0,
06.29 17:04:12:016,42003,0.04675,-0.05608,9.79691,0.00000,0.00000,-0.00000,0.37766,-0.15460,-0.58279,-0.55303,115.38708,-0.19653,0.53445,-0.00113,-0.00500,0.84519,1,0,
06.29 17:04:12:025,42004,0.03123,-0.08004,9.78327,0.00000,0.00000,-0.00000,0.37766,-0.15411,-0.58229,-0.55298,115.38741,-0.19542,0.53445,-0.00114,-0.00499,0.84519,1,0,
06.29 17:04:12:035,42005,0.02601,-0.09042,9.79574,0.00000,0.00000,-0.00000,0.37617,-0.15360,-0.58280,-0.55372,115.38790,-0.19634,0.53444,-0.00113,-0.00500,0.84519,1,0,
06.29 17:04:12:045,42006,0.01160,-0.05070,9.81648,0.00000,0.00000,-0.00000,0.37667,-0.15362,-0.58180,-0.55364,115.38946,-0.19697,0.53443,-0.00113,-0.00500,0.84520,1,0,
06.29 17:04:12:056,42007,-0.00961,-0.11204,9.80475,0.00000,0.00000,-0.00000,0.37716,-0.15311,-0.58229,-0.55468,115.38954,-0.19790,0.53443,-0.00113,-0.00501,0.84520,1,0,
06.29 17:04:12:065,42008,0.06173,-0.09715,9.74772,0.00000,0.00000,-0.00000,0.37815,-0.15513,-0.58080,-0.55479,115.38519,-0.20171,0.53446,-0.00110,-0.00503,0.84518,1,0,
06.29 17:04:12:075,42009,0.11586,-0.05549,9.80621,0.00000,0.00000,-0.00000,0.37815,-0.15462,-0.58129,-0.55418,115.38543,-0.20312,0.53446,-0.00109,-0.00503,0.84518,1,0,
06.29 17:04:12:086,42010,0.08758,-0.12735,9.62458,0.00000,0.00000,-0.00000,0.37865,-0.15512,-0.58129,-0.55363,115.38613,-0.19530,0.53445,-0.00114,-0.00499,0.84518,1,0,
06.29 17:04:12:096,42011,-0.05951,-0.00112,9.95471,0.00000,0.00000,-0.00000,0.37419,-0.15559,-0.58332,-0.55229,115.38979,-0.19211,0.53443,-0.00116,-0.00497,0.84520,1,0,
06.29 17:04:12:106,42012,0.07477,-0.08762,9.86816,0.00000,0.00000,-0.00000,0.38112,-0.15464,-0.58028,-0.55245,115.38719,-0.20189,0.53445,-0.00109,-0.00502,0.84519,1,0,
06.29 17:04:12:115,42013,0.06544,-0.11933,9.89962,0.00000,0.00000,-0.00000,0.37766,-0.15510,-0.58279,-0.55517,115.38395,-0.20164,0.53447,-0.00110,-0.00504,0.84517,1,0,
06.29 17:04:12:126,42014,-0.03038,-0.14412,9.56757,0.00000,0.00000,-0.00000,0.37420,-0.15308,-0.58431,-0.55854,115.38857,-0.19557,0.53444,-0.00116,-0.00503,0.84519,1,0,
06.29 17:04:12:136,42015,-0.03774,0.00500,9.86390,0.00000,0.00000,-0.00000,0.37914,-0.15513,-0.58079,-0.55271,115.39331,-0.19807,0.53440,-0.00112,-0.00500,0.84522,1,0,
06.29 17:04:12:146,42016,0.12153,-0.13348,9.84575,0.00000,0.00000,-0.00000,0.37518,-0.15462,-0.58182,-0.55190,115.39255,-0.20785,0.53441,-0.00104,-0.00504,0.84521,1,0,
06.29 17:04:12:156,42017,0.10521,-0.05032,9.61418,0.00000,0.00000,-0.00000,0.37865,-0.15513,-0.58079,-0.55274,115.39233,-0.20663,0.53441,-0.00105,-0.00504,0.84521,1,0,
06.29 17:04:12:166,42018,-0.00580,-0.08764,9.92925,0.00000,0.00000,-0.00000,0.37866,-0.15456,-0.58428,-0.55312,115.39173,-0.20035,0.53441,-0.00110,-0.00501,0.84521,1,0,
06.29 17:04:12:175,42019,-0.02028,-0.11992,9.80661,0.00000,0.00000,-0.00000,0.37814,-0.15517,-0.57881,-0.55400,115.39163,-0.20076,0.53441,-0.00110,-0.00502,0.84521,1,0,
06.29 17:04:12:186,42020,-0.86711,-0.75587,9.78194,0.00000,0.00000,-0.00000,0.37867,-0.15604,-0.58528,-0.55117,115.39485,-0.20101,0.53439,-0.00109,-0.00500,0.84522,1,0,
06.29 17:04:12:195,42021,-2.46127,-9.03364,9.49123,0.00000,0.00000,-0.00000,0.37864,-0.15615,-0.57980,-0.59503,115.61694,-0.16918,0.53275,-0.00152,-0.00518,0.84626,1,0,
06.29 17:04:12:206,42022,-4.65399,-3.06220,8.82736,0.00000,0.00000,-0.00000,0.38014,-0.15660,-0.58228,-0.55696,116.19080,-0.08068,0.52850,-0.00197,-0.00450,0.84892,1,0,
06.29 17:04:12:216,42023,-3.71719,-1.01371,10.43681,0.00000,0.00000,-0.00000,0.37913,-0.16167,-0.57833,-0.52552,116.19834,-0.28416,0.52845,-0.00032,-0.00520,0.84895,1,0,
06.29 17:04:12:226,42024,0.39553,1.14124,10.48145,0.00000,0.00000,-0.00000,0.37021,-0.16117,-0.57989,-0.55822,115.58496,-0.20675,0.53299,-0.00107,-0.00508,0.84611,1,0,
06.29 17:04:12:236,42025,-0.14064,1.99454,10.17617,0.00000,0.00000,-0.00000,0.37466,-0.15570,-0.57784,-0.64388,114.75960,0.24769,0.53905,-0.00485,-0.00357,0.84225,1,0,
06.29 17:04:12:246,42026,-2.03481,0.73732,8.58869,0.00000,0.00000,-0.00000,0.37464,-0.14976,-0.57533,-0.61914,113.94238,0.43208,0.54503,-0.00611,-0.00247,0.83839,1,0,
06.29 17:04:12:256,42027,0.86962,-1.04307,10.43556,0.00000,0.00000,-0.00000,0.37219,-0.14568,-0.57982,-0.51536,113.07848,0.24713,0.55135,-0.00428,-0.00256,0.83426,1,0,
06.29 17:04:12:266,42028,1.78160,-0.46338,11.49113,0.00000,0.00000,-0.00000,0.36673,-0.14169,-0.58034,-0.35433,112.06081,0.28631,0.55874,-0.00380,-0.00117,0.82933,1,0,
06.29 17:04:12:276,42029,1.85623,1.22932,11.88025,0.00000,0.00000,-0.00000,0.36474,-0.13520,-0.58083,-0.17245,110.87248,0.43801,0.56731,-0.00400,0.00093,0.82349,1,0,
06.29 17:04:12:286,42030,3.88892,7.52295,17.29248,0.00000,0.00000,-0.00000,0.36574,-0.13118,-0.58181,-0.33466,109.71468,0.64644,0.57559,-0.00629,0.00086,0.81771,1,0,
06.29 17:04:12:296,42031,4.59669,0.75817,15.09025,0.00000,0.00000,-0.00000,0.36620,-0.11630,-0.57628,-0.91461,108.63712,1.05483,0.58318,-0.01213,-0.00111,0.81226,1,0,
06.29 17:04:12:306,42032,3.28849,0.41993,13.90366,0.00000,0.00000,-0.00000,0.37512,-0.10581,-0.57517,-1.57035,107.58296,1.73791,0.59043,-0.02033,-0.00210,0.80683,1,0,
06.29 17:04:12:316,42033,1.83570,0.15106,13.30260,0.00000,0.00000,-0.00000,0.38400,-0.08850,-0.56508,-2.35851,106.53692,2.56624,0.59742,-0.03025,-0.00310,0.80135,1,0,
06.29 17:04:12:325,42034,0.24383,-1.28835,15.59171,0.00000,0.00000,-0.00000,0.39486,-0.07268,-0.55548,-3.09052,105.51688,3.54141,0.60400,-0.04090,-0.00276,0.79593,1,0,
06.29 17:04:12:336,42035,0.10019,-2.83914,16.12516,0.00000,0.00000,-0.00000,0.40523,-0.06035,-0.54590,-3.46605,104.59078,4.54675,0.60988,-0.04985,0.00034,0.79092,1,0,
06.29 17:04:12:346,42036,-0.22643,-3.35311,15.58728,0.00000,0.00000,-0.00000,0.42004,-0.05509,-0.53233,-3.43779,103.72219,5.54938,0.61543,-0.05656,0.00632,0.78614,1,0,
06.29 17:04:12:356,42037,0.09207,-2.43375,14.38129,0.00000,0.00000,-0.00000,0.43538,-0.04920,-0.52472,-3.20007,102.79738,6.62377,0.62135,-0.06252,0.01424,0.78090,1,0,
06.29 17:04:12:366,42038,1.28587,-2.49777,12.61374,0.00000,0.00000,-0.00000,0.44724,-0.05037,-0.51467,-2.97978,101.72843,7.64218,0.62820,-0.06805,0.02192,0.77476,1,0,
06.29 17:04:12:376,42039,2.66769,-2.86756,11.55277,0.00000,0.00000,-0.00000,0.46255,-0.04611,-0.50060,-2.84473,100.55590,8.56291,0.63566,-0.07322,0.02866,0.76796,1,0,
06.29 17:04:12:385,42040,4.17811,-2.66794,11.27671,0.00000,0.00000,-0.00000,0.47442,-0.03724,-0.49300,-2.71698,99.42812,9.30178,0.64283,-0.07711,0.03439,0.76134,1,0,
06.29 17:04:12:396,42041,4.71022,-2.18085,11.07263,0.00000,0.00000,-0.00000,0.48380,-0.03288,-0.48445,-2.53447,98.42957,9.90107,0.64918,-0.07972,0.03967,0.75540,1,0,
06.29 17:04:12:406,42042,3.18224,-0.71974,11.33406,0.00000,0.00000,-0.00000,0.49022,-0.02897,-0.47941,-2.28295,97.40623,10.41216,0.65575,-0.08125,0.04497,0.74925,1,0,
06.29 17:04:12:416,42043,3.47548,1.20789,10.69381,0.00000,0.00000,-0.00000,0.49812,-0.02763,-0.47038,-2.07529,96.20567,10.78152,0.66347,-0.08196,0.04931,0.74207,1,0,
06.29 17:04:12:425,42044,3.02378,1.77875,9.90717,0.00000,0.00000,-0.00000,0.50005,-0.01681,-0.46187,-2.00239,94.83382,11.00092,0.67221,-0.08234,0.05204,0.73393,1,0,
06.29 17:04:12:435,42045,2.54303,1.16733,9.70904,0.00000,0.00000,-0.00000,0.50104,-0.00582,-0.46182,-2.06024,93.34441,11.07421,0.68160,-0.08246,0.05318,0.72512,1,0,
06.29 17:04:12:446,42046,2.32174,-0.36758,9.82543,0.00000,0.00000,-0.00000,0.50101,0.00408,-0.45731,-2.21509,91.83736,11.06182,0.69097,-0.08261,0.05322,0.71617,1,0,
06.29 17:04:12:456,42047,1.82573,-1.35114,10.38557,0.00000,0.00000,-0.00000,0.49850,0.01895,-0.45180,-2.35056,90.40242,11.07645,0.69978,-0.08285,0.05350,0.70752,1,0,
06.29 17:04:12:466,42048,0.71427,-2.32637,11.68686,0.00000,0.00000,-0.00000,0.49897,0.03037,-0.44827,-2.40534,89.08639,11.22068,0.70771,-0.08345,0.05501,0.69940,1,0,
06.29 17:04:12:476,42049,-0.02652,-2.77342,12.18021,0.00000,0.00000,-0.00000,0.50242,0.04176,-0.44322,-2.26578,87.97845,11.52352,0.71432,-0.08386,0.05855,0.69231,1,0,
06.29 17:04:12:486,42050,0.45727,-2.73210,11.65026,0.00000,0.00000,-0.00000,0.50540,0.04529,-0.44418,-1.69451,87.09064,11.91354,0.71978,-0.08215,0.06508,0.68625,1,0,
06.29 17:04:12:496,42051,1.13434,-3.03729,9.65094,0.00000,0.00000,-0.00000,0.50886,0.04424,-0.44117,-0.67792,86.34711,12.20910,0.72471,-0.07705,0.07353,0.68078,1,0,
06.29 17:04:12:506,42052,1.30628,-3.32622,7.60214,0.00000,0.00000,-0.00000,0.51283,0.03926,-0.44116,0.44696,85.59707,12.47529,0.72969,-0.07098,0.08236,0.67508,1,0,
06.29 17:04:12:515,42053,1.33251,-4.12443,4.85167,0.00000,0.00000,-0.00000,0.51582,0.03634,-0.44463,1.56329,84.94842,12.69246,0.73401,-0.06463,0.09068,0.66995,1,0,
06.29 17:04:12:526,42054,2.95509,-2.56639,4.51336,0.00000,0.00000,-0.00000,0.51633,0.03037,-0.44564,2.41535,84.51488,12.84947,0.73691,-0.05973,0.09688,0.66635,1,0,
06.29 17:04:12:535,42055,2.89570,0.00514,1.65904,0.00000,0.00000,-0.00000,0.52228,0.02835,-0.44411,2.94906,84.13562,13.00667,0.73928,-0.05688,0.10118,0.66331,1,0,
06.29 17:04:12:546,42056,1.88585,2.09646,0.53119,0.00000,0.00000,-0.00000,0.52277,0.02634,-0.44312,3.26439,83.65467,13.06965,0.74218,-0.05478,0.10364,0.65987,1,0,
06.29 17:04:12:556,42057,0.44005,3.64259,1.03704,0.00000,0.00000,-0.00000,0.52427,0.02939,-0.44558,3.36754,83.02718,13.11398,0.74580,-0.05380,0.10482,0.65567,1,0,
06.29 17:04:12:566,42058,-1.12672,3.69405,2.57208,0.00000,0.00000,-0.00000,0.52526,0.03539,-0.44555,3.13686,82.29147,13.17146,0.74985,-0.05496,0.10422,0.65103,1,0,
06.29 17:04:12:576,42059,-2.27598,2.21594,3.49196,0.00000,0.00000,-0.00000,0.52225,0.04278,-0.44107,2.56215,81.54459,13.19732,0.75378,-0.05821,0.10151,0.64662,1,0,
06.29 17:04:12:586,42060,-2.74325,1.69284,4.03393,0.00000,0.00000,-0.00000,0.52325,0.05679,-0.44201,1.87407,80.88267,13.23961,0.75712,-0.06241,0.09826,0.64282,1,0,
06.29 17:04:12:595,42061,-2.82876,1.58555,3.92108,0.00000,0.00000,-0.00000,0.52174,0.06720,-0.43850,1.16328,80.29887,13.30965,0.75993,-0.06701,0.09508,0.63951,1,0,
06.29 17:04:12:605,42062,-4.21878,-0.52830,3.52851,0.00000,0.00000,-0.00000,0.52321,0.08114,-0.43595,0.29678,79.79103,13.38782,0.76218,-0.07279,0.09108,0.63678,1,0,
06.29 17:04:12:616,42063,-4.81556,-2.57713,5.45007,0.00000,0.00000,-0.00000,0.52363,0.09335,-0.42246,-0.93904,79.47678,13.43189,0.76306,-0.08102,0.08472,0.63561,1,0,
06.29 17:04:12:626,42064,-5.13041,-3.81742,6.12624,0.00000,0.00000,-0.00000,0.52309,0.10822,-0.41644,-2.36513,79.35949,13.38851,0.76268,-0.09019,0.07661,0.63586,1,0,
06.29 17:04:12:636,42065,-6.70469,-3.05311,4.40490,0.00000,0.00000,-0.00000,0.52404,0.12003,-0.40793,-3.28123,79.39559,13.26503,0.76185,-0.09563,0.07067,0.63675,1,0,
06.29 17:04:12:645,42066,-7.09465,-0.53584,4.45375,0.00000,0.00000,-0.00000,0.52503,0.12303,-0.40791,-3.45505,79.42674,12.83753,0.76193,-0.09444,0.06682,0.63725,1,0,
06.29 17:04:12:656,42067,-5.48737,-0.44669,4.27808,0.00000,0.00000,-0.00000,0.51861,0.12266,-0.41493,-3.25137,79.30332,12.01568,0.76351,-0.08848,0.06255,0.63664,1,0,
06.29 17:04:12:666,42068,-2.60995,-0.49669,5.25428,0.00000,0.00000,-0.00000,0.51173,0.12038,-0.42694,-3.12192,79.23905,10.90669,0.76487,-0.08147,0.05589,0.63656,1,0,
06.29 17:04:12:675,42069,-1.14241,0.03885,5.64424,0.00000,0.00000,-0.00000,0.50186,0.12206,-0.43747,-3.12248,79.28054,9.68754,0.76556,-0.07476,0.04768,0.63722,1,0,
06.29 17:04:12:686,42070,0.19155,0.33528,6.57948,0.00000,0.00000,-0.00000,0.49204,0.12244,-0.45745,-3.12751,79.32695,8.44272,0.76615,-0.06792,0.03927,0.63785,1,0,
06.29 17:04:12:695,42071,0.24498,0.28651,6.88175,0.00000,0.00000,-0.00000,0.48362,0.12196,-0.46001,-3.10154,79.25972,7.30665,0.76723,-0.06143,0.03183,0.63762,1,0,
06.29 17:04:12:706,42072,0.41749,-0.58914,6.18545,0.00000,0.00000,-0.00000,0.47473,0.12513,-0.47003,-2.99924,78.98418,6.30007,0.76937,-0.05510,0.02577,0.63590,1,0,
06.29 17:04:12:716,42073,0.96366,-1.36681,4.72934,0.00000,0.00000,-0.00000,0.46387,0.12431,-0.48007,-2.85433,78.47647,5.33567,0.77271,-0.04870,0.02030,0.63256,1,0,
06.29 17:04:12:726,42074,0.47354,-1.64096,4.06851,0.00000,0.00000,-0.00000,0.45302,0.12952,-0.49258,-2.73861,77.72261,4.33200,0.77732,-0.04230,0.01444,0.62751,1,0,
06.29 17:04:12:736,42075,-0.11450,-1.45209,4.39697,0.00000,0.00000,-0.00000,0.43815,0.13558,-0.49815,-2.63377,76.81892,3.23442,0.78267,-0.03553,0.00784,0.62137,1,0,
06.29 17:04:12:745,42076,-0.93252,-1.69446,6.56137,0.00000,0.00000,-0.00000,0.42332,0.14176,-0.50970,-2.42746,75.88122,2.07707,0.78811,-0.02784,0.00127,0.61491,1,0,
06.29 17:04:12:756,42077,-1.32399,-1.39274,9.00614,0.00000,0.00000,-0.00000,0.40850,0.14895,-0.52174,-2.05204,75.00168,0.84236,0.79312,-0.01868,-0.00507,0.60876,1,0,
06.29 17:04:12:766,42078,-3.53290,-6.12090,15.32781,0.00000,0.00000,-0.00000,0.39022,0.14772,-0.53781,-1.56376,74.22776,-0.44772,0.79739,-0.00852,-0.01135,0.60330,1,0,
06.29 17:04:12:776,42079,-4.90100,3.33889,9.68471,0.00000,0.00000,-0.00000,0.37538,0.14786,-0.54689,-1.11493,73.88305,-1.53201,0.79922,0.00026,-0.01653,0.60081,1,0,
06.29 17:04:12:786,42080,-6.32311,3.19405,14.19631,0.00000,0.00000,-0.00000,0.36651,0.14456,-0.55792,-0.98667,73.71098,-2.50670,0.80004,0.00623,-0.02266,0.59948,1,0,
06.29 17:04:12:796,42081,-5.20653,3.88736,17.12709,0.00000,0.00000,-0.00000,0.35364,0.14665,-0.56449,-1.03275,73.46800,-3.44318,0.80119,0.01075,-0.02946,0.59759,1,0,
06.29 17:04:12:805,42082,-4.37076,2.93162,21.87605,0.00000,0.00000,-0.00000,0.34176,0.14976,-0.57154,-1.24783,73.09822,-4.25609,0.80299,0.01337,-0.03631,0.59474,1,0,
06.29 17:04:12:816,42083,-3.35649,1.54677,27.88837,0.00000,0.00000,-0.00000,0.33332,0.15472,-0.57109,-1.55990,72.67812,-4.85316,0.80507,0.01413,-0.04216,0.59151,1,0,
06.29 17:04:12:825,42084,-1.32426,0.57850,36.39870,0.00000,0.00000,-0.00000,0.32639,0.16227,-0.57510,-1.87977,72.20692,-5.17582,0.80746,0.01336,-0.04613,0.58797,1,0,
06.29 17:04:12:835,42085,1.13946,-0.36118,43.73867,0.00000,0.00000,-0.00000,0.32141,0.17219,-0.57262,-2.27067,71.76795,-5.20653,0.80974,0.01058,-0.04839,0.58470,1,0,
06.29 17:04:12:847,42086,4.44354,-1.26844,48.44320,0.00000,0.00000,-0.00000,0.32187,0.18056,-0.56661,-2.89297,71.33841,-4.78163,0.81205,0.00383,-0.04859,0.58156,1,0,
06.29 17:04:12:855,42087,6.76938,-2.81886,49.59201,0.00000,0.00000,-0.00000,0.32381,0.19338,-0.55809,-3.81719,70.88363,-3.59205,0.81446,-0.00896,-0.04482,0.57842,1,0,
06.29 17:04:12:866,42088,6.44781,-5.40360,47.20184,0.00000,0.00000,-0.00000,0.33561,0.20901,-0.53853,-4.88944,70.37727,-1.56337,0.81677,-0.02700,-0.03572,0.57522,1,0,
06.29 17:04:12:875,42089,5.14411,-5.56437,41.91927,0.00000,0.00000,-0.00000,0.35782,0.22460,-0.51590,-5.84309,69.85925,1.25658,0.81842,-0.04805,-0.02020,0.57225,1,0,
06.29 17:04:12:886,42090,5.09825,-3.81103,35.26878,0.00000,0.00000,-0.00000,0.38743,0.23507,-0.48576,-6.56113,69.26858,4.66828,0.81944,-0.07015,0.00096,0.56885,1,0,
06.29 17:04:12:895,42091,5.10508,-2.13853,28.49493,0.00000,0.00000,-0.00000,0.41705,0.24406,-0.45613,-7.11230,68.59238,8.52806,0.81966,-0.09292,0.02645,0.56464,1,0,
06.29 17:04:12:905,42092,4.11031,-1.63246,21.05935,0.00000,0.00000,-0.00000,0.45111,0.24996,-0.42199,-7.57465,67.84526,12.63933,0.81889,-0.11577,0.05450,0.55950,1,0,
06.29 17:04:12:915,42093,4.45281,-1.56938,15.17448,0.00000,0.00000,-0.00000,0.48215,0.25519,-0.37942,-7.97433,67.03531,16.73460,0.81726,-0.13751,0.08304,0.55343,1,0,
06.29 17:04:12:925,42094,3.81371,-1.01324,9.05996,0.00000,0.00000,-0.00000,0.51324,0.26160,-0.34580,-8.31612,66.20912,20.76604,0.81465,-0.15792,0.11162,0.54676,1,0,
06.29 17:04:12:935,42095,6.38431,-0.60250,2.33753,0.00000,0.00000,-0.00000,0.54032,0.26388,-0.30625,-8.56811,65.47460,24.75399,0.81065,-0.17697,0.14033,0.54021,1,0,
06.29 17:04:12:946,42096,7.25496,0.25366,-6.70048,0.00000,0.00000,-0.00000,0.56193,0.26205,-0.26179,-8.89155,64.71294,28.60807,0.80583,-0.19528,0.16788,0.53321,1,0,
06.29 17:04:12:956,42097,6.48979,0.48137,-14.74553,0.00000,0.00000,-0.00000,0.58207,0.26382,-0.22280,-9.25654,63.93303,32.25822,0.80044,-0.21236,0.19387,0.52594,1,0,
06.29 17:04:12:966,42098,4.39152,0.93362,-21.68825,0.00000,0.00000,-0.00000,0.59875,0.26463,-0.18633,-9.47440,63.19551,35.45523,0.79536,-0.22600,0.21725,0.51879,1,0,
06.29 17:04:12:976,42099,3.49391,1.47695,-27.99443,0.00000,0.00000,-0.00000,0.61250,0.26261,-0.15836,-9.54698,62.55636,38.08178,0.79100,-0.23603,0.23702,0.51229,1,0,
06.29 17:04:12:986,42100,2.78919,1.98257,-32.21958,0.00000,0.00000,-0.00000,0.62080,0.26311,-0.13241,-9.58654,62.05987,40.10305,0.78737,-0.24339,0.25231,0.50710,1,0,
06.29 17:04:12:996,42101,3.43181,2.38284,-36.56168,0.00000,0.00000,-0.00000,0.62666,0.26175,-0.11345,-9.56170,61.85869,41.32380,0.78472,-0.24762,0.26154,0.50447,1,0,
06.29 17:04:13:005,42102,4.13640,0.62781,-38.84401,0.00000,0.00000,-0.00000,0.63059,0.26263,-0.10695,-9.57099,61.92555,41.76537,0.78308,-0.24959,0.26449,0.50451,1,0,
06.29 17:04:13:015,42103,4.41235,-0.53451,-36.93074,0.00000,0.00000,-0.00000,0.63257,0.26111,-0.10594,-9.65117,62.19482,41.41949,0.78276,-0.24938,0.26110,0.50688,1,0,
06.29 17:04:13:025,42104,4.78204,-1.43927,-33.99860,0.00000,0.00000,-0.00000,0.62912,0.25868,-0.10946,-9.62651,62.68046,40.37185,0.78375,-0.24611,0.25272,0.51118,1,0,
06.29 17:04:13:036,42105,5.46295,-0.74658,-30.99975,0.00000,0.00000,-0.00000,0.63021,0.25906,-0.12836,-9.42175,63.34496,38.65528,0.78611,-0.23915,0.24003,0.51693,1,0,
06.29 17:04:13:046,42106,6.19658,-0.14633,-26.95774,0.00000,0.00000,-0.00000,0.62437,0.25649,-0.15032,-9.00625,64.13094,36.16842,0.79015,-0.22754,0.22262,0.52376,1,0,
06.29 17:04:13:056,42107,7.76195,0.44649,-21.76001,0.00000,0.00000,-0.00000,0.60967,0.25317,-0.18579,-8.38179,64.93801,32.93223,0.79580,-0.21089,0.20088,0.53093,1,0,
06.29 17:04:13:066,42108,8.39514,1.40596,-16.16207,0.00000,0.00000,-0.00000,0.59599,0.25097,-0.22721,-7.57199,65.66155,29.14510,0.80246,-0.18981,0.17631,0.53753,1,0,
06.29 17:04:13:075,42109,9.68642,1.66297,-10.70726,0.00000,0.00000,-0.00000,0.57342,0.24789,-0.27618,-6.64099,66.24868,24.97937,0.80945,-0.16534,0.14991,0.54312,1,0,
06.29 17:04:13:087,42110,11.40877,1.78824,-4.49939,0.00000,0.00000,-0.00000,0.54291,0.24130,-0.32523,-5.65594,66.71502,20.58511,0.81597,-0.13867,0.12236,0.54772,1,0,
06.29 17:04:13:096,42111,12.52011,2.17308,2.35867,0.00000,0.00000,-0.00000,0.51092,0.23473,-0.37577,-4.74316,67.07851,16.07323,0.82142,-0.11133,0.09379,0.55144,1,0,
06.29 17:04:13:106,42112,12.37988,1.65821,10.23248,0.00000,0.00000,-0.00000,0.47444,0.23205,-0.42187,-3.97311,67.41014,11.52187,0.82528,-0.08436,0.06432,0.55468,1,0,
06.29 17:04:13:116,42113,13.34633,0.54519,18.47189,0.00000,0.00000,-0.00000,0.43646,0.22431,-0.46500,-3.39836,67.77087,7.02433,0.82722,-0.05871,0.03433,0.55775,1,0,
06.29 17:04:13:126,42114,13.67045,-0.20269,27.17384,0.00000,0.00000,-0.00000,0.39497,0.21795,-0.50219,-3.02640,68.18488,2.79186,0.82724,-0.03551,0.00537,0.56070,1,0,
06.29 17:04:13:136,42115,13.28531,-1.21130,35.74905,0.00000,0.00000,-0.00000,0.36088,0.21243,-0.53085,-2.84480,68.63538,-0.99642,0.82576,-0.01560,-0.02117,0.56341,1,0,
06.29 17:04:13:145,42116,13.43938,-2.17183,44.26769,0.00000,0.00000,-0.00000,0.32528,0.20781,-0.55504,-2.77433,69.08222,-4.29452,0.82341,0.00131,-0.04457,0.56569,1,0,
06.29 17:04:13:156,42117,12.36968,-1.11150,52.47105,0.00000,0.00000,-0.00000,0.29609,0.20259,-0.57271,-2.83779,69.51302,-7.01169,0.82066,0.01454,-0.06431,0.56760,1,0,
06.29 17:04:13:165,42118,10.21245,-2.06257,59.24712,0.00000,0.00000,-0.00000,0.27432,0.20325,-0.58433,-3.06820,69.75537,-8.96438,0.81877,0.02278,-0.07935,0.56816,1,0,
06.29 17:04:13:176,42119,8.43841,-2.24747,64.17009,0.00000,0.00000,-0.00000,0.25797,0.20432,-0.59043,-3.37480,69.78581,-10.14875,0.81814,0.02652,-0.08929,0.56742,1,0,
06.29 17:04:13:187,42120,5.68068,-3.33026,66.99457,0.00000,0.00000,-0.00000,0.25351,0.21035,-0.59244,-3.73519,69.56291,-10.39615,0.81921,0.02500,-0.09289,0.56537,1,0,
06.29 17:04:13:196,42121,4.77011,-4.56249,66.08295,0.00000,0.00000,-0.00000,0.25151,0.21427,-0.58896,-4.07174,69.11954,-9.64972,0.82179,0.01853,-0.08930,0.56244,1,0,
06.29 17:04:13:205,42122,5.65760,-3.86744,61.76685,0.00000,0.00000,-0.00000,0.26137,0.22355,-0.57740,-4.34301,68.50931,-7.89894,0.82546,0.00750,-0.07817,0.55897,1,0,
06.29 17:04:13:216,42123,6.73629,-3.33772,55.20172,0.00000,0.00000,-0.00000,0.28215,0.23038,-0.56626,-4.57473,67.74237,-5.25939,0.82978,-0.00755,-0.06028,0.55478,1,0,
06.29 17:04:13:226,42124,7.87997,-2.82384,49.66500,0.00000,0.00000,-0.00000,0.30735,0.23953,-0.54562,-4.74368,66.85641,-1.97648,0.83413,-0.02504,-0.03718,0.54974,1,0,
06.29 17:04:13:236,42125,10.33899,-2.00613,42.41791,0.00000,0.00000,-0.00000,0.33898,0.24812,-0.52094,-4.91791,65.92426,1.74910,0.83780,-0.04429,-0.01055,0.54407,1,0,
06.29 17:04:13:246,42126,11.96109,-1.19224,34.76646,0.00000,0.00000,-0.00000,0.36809,0.25657,-0.48982,-5.23471,65.02599,5.99019,0.83996,-0.06651,0.01950,0.53821,1,0,
06.29 17:04:13:256,42127,13.16522,-0.18790,25.52886,0.00000,0.00000,-0.00000,0.41009,0.26200,-0.45512,-5.78529,64.17165,10.73273,0.83996,-0.09218,0.05245,0.53219,1,0,
06.29 17:04:13:266,42128,13.94556,1.30105,14.70355,0.00000,0.00000,-0.00000,0.44955,0.27320,-0.41047,-6.57566,63.33601,15.90729,0.83736,-0.12087,0.08776,0.52584,1,0,
06.29 17:04:13:276,42129,14.60298,2.79325,2.43882,0.00000,0.00000,-0.00000,0.48849,0.27829,-0.35987,-7.56498,62.46568,21.32541,0.83214,-0.15116,0.12425,0.51889,1,0,
06.29 17:04:13:286,42130,13.61154,2.79814,-10.59189,0.00000,0.00000,-0.00000,0.52740,0.28576,-0.30329,-8.64444,61.46109,26.71677,0.82505,-0.18076,0.16056,0.51073,1,0,
06.29 17:04:13:296,42131,11.88480,2.14334,-22.71743,0.00000,0.00000,-0.00000,0.55735,0.29163,-0.24331,-9.67051,60.29710,31.76302,0.81717,-0.20706,0.19507,0.50130,1,0,
06.29 17:04:13:305,42132,9.21740,1.32076,-32.35286,0.00000,0.00000,-0.00000,0.57992,0.29918,-0.19333,-10.39692,59.15508,36.05806,0.80974,-0.22707,0.22553,0.49182,1,0,
06.29 17:04:13:316,42133,8.23874,2.83098,-40.28916,0.00000,0.00000,-0.00000,0.59606,0.29884,-0.14940,-10.61900,58.27154,39.35562,0.80376,-0.23935,0.25044,0.48370,1,0,
06.29 17:04:13:326,42134,7.05174,2.08840,-45.42223,0.00000,0.00000,-0.00000,0.60684,0.29633,-0.12245,-10.48003,57.78835,41.72422,0.79898,-0.24607,0.26925,0.47810,1,0,
06.29 17:04:13:336,42135,4.79572,-0.12797,-48.78155,0.00000,0.00000,-0.00000,0.61369,0.29297,-0.10349,-10.23794,57.77756,43.22924,0.79487,-0.24988,0.28116,0.47613,1,0,
06.29 17:04:13:346,42136,2.26605,-2.59750,-48.59860,0.00000,0.00000,-0.00000,0.61860,0.28629,-0.09352,-10.05319,58.25480,43.83904,0.79135,-0.25201,0.28528,0.47840,1,0,
06.29 17:04:13:356,42137,2.23455,-3.13051,-45.77394,0.00000,0.00000,-0.00000,0.62405,0.28576,-0.09099,-9.83477,59.21043,43.52204,0.78882,-0.25169,0.28182,0.48476,1,0,
06.29 17:04:13:366,42138,2.97237,-2.73187,-40.99958,0.00000,0.00000,-0.00000,0.62905,0.27443,-0.09796,-9.51802,60.51493,42.23794,0.78791,-0.24778,0.27115,0.49424,1,0,
06.29 17:04:13:376,42139,3.86502,-1.19476,-36.20214,0.00000,0.00000,-0.00000,0.62768,0.27036,-0.11938,-9.05562,61.91869,39.98775,0.78945,-0.23896,0.25413,0.50506,1,0,
06.29 17:04:13:386,42140,6.80701,-0.09802,-30.18542,0.00000,0.00000,-0.00000,0.62087,0.26338,-0.14584,-8.45301,63.13842,36.77153,0.79415,-0.22427,0.23139,0.51526,1,0,
06.29 17:04:13:395,42141,9.62301,-0.79606,-21.55214,0.00000,0.00000,-0.00000,0.60722,0.25977,-0.19175,-7.58924,63.97751,32.68265,0.80224,-0.20259,0.20447,0.52303,1,0,
06.29 17:04:13:406,42142,12.54554,-1.82979,-13.16900,0.00000,0.00000,-0.00000,0.58518,0.25733,-0.24719,-6.32744,64.40315,27.96115,0.81276,-0.17387,0.17558,0.52761,1,0,
06.29 17:04:13:416,42143,15.02651,-0.17296,-3.12567,0.00000,0.00000,-0.00000,0.55325,0.25199,-0.30918,-4.57066,64.46650,22.89937,0.82417,-0.13885,0.14694,0.52903,1,0,
06.29 17:04:13:426,42144,15.90883,1.11854,5.72389,0.00000,0.00000,-0.00000,0.51141,0.23970,-0.37476,-2.41974,64.22222,17.80828,0.83489,-0.09993,0.11999,0.52781,1,0,
06.29 17:04:13:435,42145,17.05695,2.11828,14.33271,0.00000,0.00000,-0.00000,0.46857,0.22735,-0.43736,-0.06581,63.82538,12.86518,0.84348,-0.05971,0.09480,0.52535,1,0,
06.29 17:04:13:445,42146,16.20768,4.62236,23.52910,0.00000,0.00000,-0.00000,0.41924,0.20535,-0.49308,2.34106,63.56039,8.32490,0.84844,-0.02090,0.07242,0.52390,1,0,
06.29 17:04:13:455,42147,18.23234,4.78575,34.10384,0.00000,0.00000,-0.00000,0.37734,0.17977,-0.54378,4.68294,63.40137,4.26290,0.85030,0.01521,0.05307,0.52339,1,0,
06.29 17:04:13:466,42148,17.40305,6.86485,44.49058,0.00000,0.00000,-0.00000,0.34031,0.15140,-0.57901,6.74412,63.43041,0.68771,0.84937,0.04689,0.03602,0.52448,1,0,
06.29 17:04:13:476,42149,16.89965,12.46561,54.64124,0.00000,0.00000,-0.00000,0.30922,0.11945,-0.60924,8.24545,63.77448,-2.57416,0.84583,0.07286,0.01895,0.52812,1,0,
06.29 17:04:13:486,42150,15.39740,18.95508,65.61810,0.00000,0.00000,-0.00000,0.28156,0.10038,-0.63392,8.98021,64.41514,-5.18613,0.84077,0.09021,0.00352,0.53381,1,0,
06.29 17:04:13:496,42151,14.15731,21.94547,73.64242,0.00000,0.00000,-0.00000,0.26575,0.08460,-0.64604,8.81943,65.03772,-6.59746,0.83695,0.09557,-0.00711,0.53883,1,0,
06.29 17:04:13:506,42152,3.53487,16.85026,73.70238,0.00000,0.00000,-0.00000,0.26080,0.08661,-0.64757,7.76321,65.47259,-6.40175,0.83589,0.08698,-0.01031,0.54187,1,0,
06.29 17:04:13:515,42153,0.56996,7.95188,64.65426,0.00000,0.00000,-0.00000,0.27164,0.10287,-0.63498,6.08575,65.81586,-4.87044,0.83638,0.06758,-0.00681,0.54393,1,0,
06.29 17:04:13:526,42154,0.10295,3.04855,52.06025,0.00000,0.00000,-0.00000,0.29781,0.12494,-0.61080,4.16701,65.99122,-2.41151,0.83756,0.04194,0.00216,0.54474,1,0,
06.29 17:04:13:536,42155,-0.41185,1.47244,41.55949,0.00000,0.00000,-0.00000,0.32842,0.15145,-0.58309,2.14859,65.99637,0.50626,0.83858,0.01332,0.01392,0.54444,1,0,
06.29 17:04:13:545,42156,2.52786,1.03114,35.51266,0.00000,0.00000,-0.00000,0.35901,0.17785,-0.55040,0.14047,65.80408,3.53969,0.83922,-0.01575,0.02660,0.54291,1,0,
06.29 17:04:13:556,42157,5.63720,0.29247,30.36710,0.00000,0.00000,-0.00000,0.38809,0.20717,-0.51373,-1.76033,65.33050,6.81317,0.83976,-0.04498,0.04174,0.53948,1,0,
06.29 17:04:13:566,42158,7.24643,0.85898,26.19447,0.00000,0.00000,-0.00000,0.41664,0.23288,-0.47160,-3.60215,64.63177,10.44060,0.83966,-0.07507,0.06012,0.53452,1,0,
06.29 17:04:13:576,42159,10.02385,1.10978,17.24386,0.00000,0.00000,-0.00000,0.44319,0.25303,-0.42652,-5.51705,63.89733,14.36385,0.83771,-0.10660,0.08069,0.52950,1,0,
06.29 17:04:13:586,42160,11.10294,2.46544,5.99989,0.00000,0.00000,-0.00000,0.47669,0.27219,-0.38089,-7.60637,63.12577,18.48192,0.83358,-0.13966,0.10226,0.52458,1,0,
06.29 17:04:13:596,42161,10.05358,4.97191,-3.81887,0.00000,0.00000,-0.00000,0.50271,0.29016,-0.32687,-9.99679,62.34092,22.70451,0.82682,-0.17459,0.12357,0.52020,1,0,
06.29 17:04:13:606,42162,7.78198,5.89517,-11.57637,0.00000,0.00000,-0.00000,0.53066,0.30696,-0.26437,-12.70182,61.34785,26.61647,0.81886,-0.20930,0.14185,0.51531,1,0,
06.29 17:04:13:616,42163,6.57788,5.62496,-17.99509,0.00000,0.00000,-0.00000,0.54920,0.32381,-0.20543,-15.58461,60.02674,30.04792,0.81101,-0.24186,0.15689,0.50908,1,0,
06.29 17:04:13:626,42164,4.45523,4.98482,-23.20320,0.00000,0.00000,-0.00000,0.55735,0.33723,-0.15156,-18.19942,58.41050,32.81918,0.80498,-0.26853,0.16946,0.50117,1,0,
06.29 17:04:13:637,42165,3.58603,3.91286,-31.85862,0.00000,0.00000,-0.00000,0.56557,0.35143,-0.11163,-20.25261,56.56419,34.89523,0.80204,-0.28756,0.18046,0.49140,1,0,
06.29 17:04:13:646,42166,2.28703,4.10892,-37.79201,0.00000,0.00000,-0.00000,0.56342,0.36381,-0.08174,-21.52597,54.82120,36.23341,0.80215,-0.29820,0.18948,0.48139,1,0,
06.29 17:04:13:656,42167,0.14915,2.71196,-39.18517,0.00000,0.00000,-0.00000,0.55543,0.37208,-0.07232,-21.94711,53.42836,36.70303,0.80539,-0.30034,0.19488,0.47241,1,0,
06.29 17:04:13:666,42168,-0.29634,-0.46012,-37.38491,0.00000,0.00000,-0.00000,0.54998,0.38210,-0.07432,-21.62791,52.51445,36.27541,0.81128,-0.29518,0.19534,0.46533,1,0,
06.29 17:04:13:676,42169,0.50819,-2.12497,-34.29478,0.00000,0.00000,-0.00000,0.53965,0.38643,-0.09230,-20.65758,51.99812,35.16014,0.81920,-0.28388,0.19215,0.45979,1,0,
06.29 17:04:13:686,42170,1.11372,-1.72933,-31.05444,0.00000,0.00000,-0.00000,0.52789,0.39247,-0.12124,-19.16549,51.78422,33.40414,0.82875,-0.26719,0.18531,0.45546,1,0,
06.29 17:04:13:696,42171,2.39898,-1.06659,-27.13755,0.00000,0.00000,-0.00000,0.51120,0.39313,-0.15671,-17.39301,51.77442,30.91751,0.83954,-0.24614,0.17342,0.45223,1,0,
06.29 17:04:13:706,42172,3.57920,1.96056,-21.19345,0.00000,0.00000,-0.00000,0.49060,0.39250,-0.20267,-15.56103,51.89458,27.65309,0.85095,-0.22181,0.15540,0.45005,1,0,
06.29 17:04:13:716,42173,5.72945,6.17441,-15.68576,0.00000,0.00000,-0.00000,0.46356,0.39338,-0.25016,-13.91635,52.02819,23.69187,0.86216,-0.19592,0.13112,0.44844,1,0,
06.29 17:04:13:726,42174,7.72297,10.07636,-8.75183,0.00000,0.00000,-0.00000,0.42808,0.39175,-0.29873,-12.68903,52.04971,19.18050,0.87254,-0.17056,0.10098,0.44652,1,0,
06.29 17:04:13:736,42175,9.95624,12.37428,-1.01939,0.00000,0.00000,-0.00000,0.38713,0.39457,-0.34534,-12.02279,51.91230,14.38231,0.88141,-0.14791,0.06646,0.44364,1,0,
06.29 17:04:13:746,42176,10.85021,9.54052,9.41698,0.00000,0.00000,-0.00000,0.33671,0.39918,-0.38355,-11.93360,51.55271,9.60513,0.88869,-0.12949,0.02994,0.43882,1,0,
06.29 17:04:13:756,42177,10.66278,5.30128,20.20256,0.00000,0.00000,-0.00000,0.28671,0.40651,-0.40782,-12.20808,51.01942,5.10547,0.89447,-0.11495,-0.00578,0.43207,1,0,
06.29 17:04:13:766,42178,9.51273,4.17539,29.14530,0.00000,0.00000,-0.00000,0.23867,0.41973,-0.42657,-12.71646,50.39111,1.06992,0.89881,-0.10415,-0.03875,0.42401,1,0,
06.29 17:04:13:776,42179,8.39391,3.39347,38.39118,0.00000,0.00000,-0.00000,0.19554,0.42879,-0.43634,-13.43747,49.66865,-2.46447,0.90214,-0.09718,-0.06851,0.41473,1,0,
06.29 17:04:13:785,42180,8.23716,1.75169,50.53831,0.00000,0.00000,-0.00000,0.15384,0.44363,-0.43562,-14.33644,48.84737,-5.47640,0.90483,-0.09389,-0.09469,0.40435,1,0,
06.29 17:04:13:796,42181,9.70345,-2.00217,63.12104,0.00000,0.00000,-0.00000,0.11858,0.45842,-0.43137,-15.22343,48.04392,-7.85402,0.90691,-0.09307,-0.11580,0.39427,1,0,
06.29 17:04:13:806,42182,10.30403,-8.72467,70.64593,0.00000,0.00000,-0.00000,0.09125,0.47122,-0.42607,-15.96586,47.23374,-9.40599,0.90887,-0.09429,-0.12985,0.38497,1,0,
06.29 17:04:13:816,42183,7.97548,-15.03995,74.15499,0.00000,0.00000,-0.00000,0.07285,0.47850,-0.41873,-16.38431,46.24651,-9.78855,0.91173,-0.09740,-0.13342,0.37611,1,0,
06.29 17:04:13:825,42184,7.04882,-17.54637,70.47227,0.00000,0.00000,-0.00000,0.06786,0.48537,-0.41327,-16.34399,45.12049,-8.92687,0.91557,-0.10132,-0.12551,0.36839,1,0,
06.29 17:04:13:836,42185,6.53249,-14.13581,63.10389,0.00000,0.00000,-0.00000,0.07230,0.48728,-0.40825,-16.02226,43.95180,-6.79462,0.91977,-0.10705,-0.10648,0.36225,1,0,
06.29 17:04:13:846,42186,7.80896,-9.11055,50.96752,0.00000,0.00000,-0.00000,0.08913,0.48720,-0.40164,-15.77748,42.80425,-3.65094,0.92336,-0.11621,-0.07944,0.35720,1,0,
06.29 17:04:13:856,42187,8.02617,-4.77018,38.84105,0.00000,0.00000,-0.00000,0.11291,0.48959,-0.39249,-15.73667,41.67245,0.09217,0.92576,-0.12823,-0.04795,0.35245,1,0,
06.29 17:04:13:865,42188,9.36496,-1.09303,29.15233,0.00000,0.00000,-0.00000,0.14113,0.48991,-0.37982,-15.95533,40.51113,4.04505,0.92680,-0.14222,-0.01523,0.34724,1,0,
06.29 17:04:13:876,42189,10.58177,1.71541,19.71635,0.00000,0.00000,-0.00000,0.16980,0.49407,-0.35867,-16.52935,39.22747,8.06231,0.92650,-0.15842,0.01740,0.34089,1,0,
06.29 17:04:13:887,42190,12.00936,4.03558,11.27041,0.00000,0.00000,-0.00000,0.19797,0.49921,-0.33702,-17.56093,37.74528,12.13238,0.92470,-0.17742,0.04972,0.33315,1,0,
06.29 17:04:13:896,42191,13.29790,5.35607,2.64669,0.00000,0.00000,-0.00000,0.22460,0.50766,-0.30592,-19.13185,36.07151,16.23720,0.92098,-0.19955,0.08148,0.32456,1,0,
06.29 17:04:13:906,42192,12.48055,5.34869,-6.71532,0.00000,0.00000,-0.00000,0.24575,0.51549,-0.26989,-21.19025,34.21986,20.30742,0.91520,-0.22396,0.11237,0.31564,1,0,
06.29 17:04:13:915,42193,10.78611,4.53743,-16.56576,0.00000,0.00000,-0.00000,0.27035,0.52523,-0.22934,-23.47780,32.29847,24.12723,0.90786,-0.24802,0.14121,0.30715,1,0,
06.29 17:04:13:926,42194,9.85803,2.78317,-26.03556,0.00000,0.00000,-0.00000,0.28849,0.53646,-0.18884,-25.66274,30.44390,27.44793,0.90013,-0.26891,0.16656,0.29953,1,0,
06.29 17:04:13:936,42195,6.99188,1.31818,-32.65331,0.00000,0.00000,-0.00000,0.30120,0.54523,-0.15138,-27.45978,28.65842,30.06399,0.89376,-0.28445,0.18738,0.29184,1,0,
06.29 17:04:13:946,42196,6.36683,-2.88084,-37.31130,0.00000,0.00000,-0.00000,0.30754,0.54834,-0.13141,-28.67219,26.92588,31.79522,0.89041,-0.29338,0.20265,0.28290,1,0,
06.29 17:04:13:956,42197,5.92474,-4.92179,-41.89565,0.00000,0.00000,-0.00000,0.30550,0.55111,-0.12047,-29.15000,25.23403,32.84733,0.89037,-0.29532,0.21431,0.27221,1,0,
06.29 17:04:13:966,42198,3.20126,-5.45017,-41.18624,0.00000,0.00000,-0.00000,0.29906,0.55414,-0.12299,-28.77293,23.79858,33.27854,0.89347,-0.29013,0.22232,0.26098,1,0,
06.29 17:04:13:976,42199,2.86461,-4.75265,-41.62088,0.00000,0.00000,-0.00000,0.29120,0.55444,-0.13898,-27.53056,22.91439,33.11527,0.89898,-0.27851,0.22597,0.25139,1,0,
06.29 17:04:13:986,42200,2.68380,-3.58175,-40.19815,0.00000,0.00000,-0.00000,0.28192,0.55098,-0.16694,-25.53362,22.72466,32.28732,0.90635,-0.26153,0.22404,0.24481,1,0,
06.29 17:04:13:995,42201,2.82908,-2.08046,-36.65297,0.00000,0.00000,-0.00000,0.26922,0.54370,-0.20440,-22.92461,23.27983,30.56070,0.91540,-0.23987,0.21430,0.24204,1,0,
06.29 17:04:14:006,42202,4.18758,0.01666,-30.38044,0.00000,0.00000,-0.00000,0.25603,0.53148,-0.24436,-19.93658,24.42481,27.76618,0.92571,-0.21423,0.19542,0.24285,1,0,
06.29 17:04:14:016,42203,7.13176,3.23608,-22.79133,0.00000,0.00000,-0.00000,0.23296,0.51588,-0.29139,-16.90152,25.75799,24.01185,0.93635,-0.18599,0.16854,0.24545,1,0,
06.29 17:04:14:026,42204,11.40279,5.38731,-12.52775,0.00000,0.00000,-0.00000,0.20346,0.50085,-0.34295,-13.94339,26.93436,19.47675,0.94662,-0.15544,0.13542,0.24780,1,0,
06.29 17:04:14:036,42205,14.84722,7.53517,-1.25668,0.00000,0.00000,-0.00000,0.16252,0.48270,-0.39012,-11.11599,27.68103,14.60791,0.95561,-0.12355,0.09988,0.24812,1,0,
06.29 17:04:14:046,42206,14.51348,11.40835,9.04794,0.00000,0.00000,-0.00000,0.11412,0.46144,-0.43289,-8.55445,27.90717,10.02447,0.96252,-0.09311,0.06664,0.24587,1,0,
06.29 17:04:14:056,42207,13.10441,14.41854,16.57675,0.00000,0.00000,-0.00000,0.06766,0.44302,-0.46767,-6.54554,27.78058,5.90926,0.96718,-0.06770,0.03627,0.24221,1,0,
06.29 17:04:14:066,42208,11.92703,13.96973,23.49889,0.00000,0.00000,-0.00000,0.02411,0.42885,-0.48997,-5.12676,27.52872,1.98472,0.96998,-0.04755,0.00617,0.23841,1,0,
06.29 17:04:14:076,42209,16.07454,11.75867,29.37558,0.00000,0.00000,-0.00000,-0.02047,0.41951,-0.50430,-4.05504,27.22613,-1.98101,0.97130,-0.03031,-0.02512,0.23459,1,0,
06.29 17:04:14:087,42210,12.22226,9.51844,43.92866,0.00000,0.00000,-0.00000,-0.06113,0.41303,-0.51112,-3.33558,26.76639,-5.58135,0.97161,-0.01702,-0.05407,0.22971,1,0,
06.29 17:04:14:096,42211,15.00315,7.40483,57.46968,0.00000,0.00000,-0.00000,-0.09983,0.40894,-0.51244,-3.12546,26.22852,-8.62587,0.97127,-0.00943,-0.07939,0.22417,1,0,
06.29 17:04:14:105,42212,14.54385,2.61641,69.54927,0.00000,0.00000,-0.00000,-0.13411,0.41518,-0.50522,-3.43868,25.60529,-10.69359,0.97108,-0.00849,-0.09745,0.21780,1,0,
06.29 17:04:14:116,42213,13.18026,-3.39962,71.61411,0.00000,0.00000,-0.00000,-0.15503,0.42384,-0.49192,-4.08601,24.97811,-11.64603,0.97146,-0.01270,-0.10666,0.21147,1,0,
06.29 17:04:14:126,42214,9.95881,-7.51085,68.74900,0.00000,0.00000,-0.00000,-0.16401,0.43114,-0.48351,-4.92714,24.36746,-11.35082,0.97268,-0.02096,-0.10560,0.20566,1,0,
06.29 17:04:14:136,42215,6.43049,-9.13082,63.51393,0.00000,0.00000,-0.00000,-0.16357,0.44195,-0.47450,-5.88406,23.80146,-9.93139,0.97447,-0.03221,-0.09513,0.20082,1,0,
06.29 17:04:14:146,42216,5.98415,-7.52647,55.95409,0.00000,0.00000,-0.00000,-0.15170,0.45031,-0.46642,-6.87959,23.20311,-7.59952,0.97646,-0.04534,-0.07684,0.19641,1,0,
06.29 17:04:14:156,42217,6.62253,-4.72664,47.99422,0.00000,0.00000,-0.00000,-0.13038,0.45779,-0.46273,-7.87392,22.51546,-4.55697,0.97820,-0.05954,-0.05229,0.19193,1,0,
06.29 17:04:14:166,42218,7.59449,-2.22547,40.92532,0.00000,0.00000,-0.00000,-0.10263,0.46372,-0.45503,-8.86254,21.74134,-1.04368,0.97921,-0.07416,-0.02349,0.18733,1,0,
06.29 17:04:14:176,42219,11.57848,-0.29625,31.02099,0.00000,0.00000,-0.00000,-0.07288,0.47021,-0.45028,-9.84877,20.92538,2.59551,0.97914,-0.08849,0.00661,0.18279,1,0,
06.29 17:04:14:186,42220,11.03405,2.51876,22.09778,0.00000,0.00000,-0.00000,-0.03968,0.47912,-0.44153,-10.85237,20.08470,6.50558,0.97775,-0.10281,0.03916,0.17860,1,0,
06.29 17:04:14:196,42221,12.13683,4.72784,10.73734,0.00000,0.00000,-0.00000,-0.00600,0.48547,-0.42929,-11.98162,19.14034,10.60809,0.97489,-0.11776,0.07338,0.17415,1,0,
06.29 17:04:14:206,42222,11.01293,6.47695,-0.90714,0.00000,0.00000,-0.00000,0.03068,0.49592,-0.42199,-13.32772,18.05397,14.81764,0.97041,-0.13375,0.10844,0.16932,1,0,
06.29 17:04:14:216,42223,10.80139,7.38993,-12.61935,0.00000,0.00000,-0.00000,0.06430,0.50154,-0.39831,-14.86822,16.80651,18.79425,0.96470,-0.14994,0.14151,0.16387,1,0,
06.29 17:04:14:226,42224,8.32820,5.76950,-23.31115,0.00000,0.00000,-0.00000,0.09296,0.51015,-0.37515,-16.55450,15.41737,22.42075,0.95818,-0.16575,0.17171,0.15794,1,0,
06.29 17:04:14:236,42225,5.39129,2.33672,-31.30370,0.00000,0.00000,-0.00000,0.11912,0.52271,-0.35001,-18.26662,13.97488,25.54331,0.95147,-0.18021,0.19781,0.15197,1,0,
06.29 17:04:14:246,42226,3.45776,-1.03185,-38.81148,0.00000,0.00000,-0.00000,0.13638,0.52932,-0.32845,-19.67719,12.62546,28.04081,0.94559,-0.19102,0.21903,0.14626,1,0,
06.29 17:04:14:255,42227,2.02160,-2.92146,-41.61132,0.00000,0.00000,-0.00000,0.15118,0.53506,-0.31338,-20.60922,11.42024,29.64726,0.94185,-0.19711,0.23326,0.14017,1,0,
06.29 17:04:14:266,42228,1.45026,-6.35832,-40.02956,0.00000,0.00000,-0.00000,0.15365,0.53751,-0.31086,-21.01948,10.40330,30.21652,0.94102,-0.19861,0.23925,0.13341,1,0,
06.29 17:04:14:276,42229,0.34556,-8.34120,-37.69533,0.00000,0.00000,-0.00000,0.14522,0.53851,-0.31242,-20.85947,9.63470,29.91735,0.94287,-0.19560,0.23827,0.12636,1,0,
06.29 17:04:14:287,42230,0.13803,-8.15334,-32.58375,0.00000,0.00000,-0.00000,0.13387,0.53622,-0.32397,-20.01032,9.26599,28.95514,0.94690,-0.18756,0.23181,0.12031,1,0,
06.29 17:04:14:296,42231,0.91915,-6.38128,-28.82403,0.00000,0.00000,-0.00000,0.11859,0.52956,-0.34302,-18.57774,9.34806,27.44308,0.95241,-0.17536,0.22054,0.11628,1,0,
06.29 17:04:14:306,42232,3.11176,-3.29459,-25.38090,0.00000,0.00000,-0.00000,0.10086,0.51803,-0.36809,-16.64955,9.84852,25.27275,0.95921,-0.15934,0.20353,0.11443,1,0,
06.29 17:04:14:316,42233,6.19141,-0.48316,-20.20689,0.00000,0.00000,-0.00000,0.07768,0.50252,-0.39521,-14.38149,10.61704,22.45887,0.96671,-0.14013,0.18102,0.11431,1,0,
06.29 17:04:14:325,42234,8.39946,2.17307,-12.54490,0.00000,0.00000,-0.00000,0.04759,0.48761,-0.42835,-11.85322,11.37644,19.16528,0.97424,-0.11772,0.15467,0.11431,1,0,
06.29 17:04:14:335,42235,10.36721,5.40081,-5.16286,0.00000,0.00000,-0.00000,0.01207,0.46332,-0.46755,-9.16712,11.91275,15.58869,0.98114,-0.09278,0.12624,0.11326,1,0,
06.29 17:04:14:346,42236,11.10401,8.05624,2.01734,0.00000,0.00000,-0.00000,-0.02304,0.44019,-0.48981,-6.53677,12.15820,11.95685,0.98673,-0.06740,0.09739,0.11106,1,0,
06.29 17:04:14:356,42237,9.80217,10.02281,10.12087,0.00000,0.00000,-0.00000,-0.06507,0.41865,-0.51810,-4.12751,12.19297,8.32293,0.99080,-0.04342,0.06830,0.10845,1,0,
06.29 17:04:14:366,42238,10.52959,10.27292,15.92383,0.00000,0.00000,-0.00000,-0.10763,0.39445,-0.53793,-2.12756,12.13864,4.73684,0.99329,-0.02281,0.03912,0.10639,1,0,
06.29 17:04:14:376,42239,9.65296,9.77696,23.58216,0.00000,0.00000,-0.00000,-0.14729,0.37850,-0.54577,-0.73501,12.03106,1.37578,0.99439,-0.00764,0.01127,0.10486,1,0,
06.29 17:04:14:386,42240,11.30415,9.57712,27.99469,0.00000,0.00000,-0.00000,-0.18348,0.36703,-0.55208,0.03980,11.89018,-1.62077,0.99452,0.00181,-0.01403,0.10357,1,0,
06.29 17:04:14:396,42241,7.21360,13.01259,38.04962,0.00000,0.00000,-0.00000,-0.21727,0.36326,-0.54340,0.18785,11.76322,-4.21629,0.99406,0.00540,-0.03642,0.10246,1,0,
06.29 17:04:14:405,42242,6.59702,10.30465,49.42704,0.00000,0.00000,-0.00000,-0.24114,0.37149,-0.53411,-0.51170,11.65252,-6.42352,0.99329,0.00125,-0.05619,0.10110,1,0,
06.29 17:04:14:415,42243,8.49256,3.97449,55.63462,0.00000,0.00000,-0.00000,-0.26459,0.38446,-0.51235,-1.89405,11.56933,-8.13046,0.99239,-0.00926,-0.07218,0.09936,1,0,
06.29 17:04:14:425,42244,7.88492,-3.69195,62.17064,0.00000,0.00000,-0.00000,-0.27612,0.40545,-0.48997,-3.39966,11.42054,-9.07942,0.99171,-0.02155,-0.08166,0.09681,1,0,
06.29 17:04:14:436,42245,8.96736,-6.14022,65.72382,0.00000,0.00000,-0.00000,-0.28366,0.41909,-0.47405,-4.56208,11.14019,-9.08555,0.99167,-0.03181,-0.08262,0.09354,1,0,
06.29 17:04:14:446,42246,9.12562,-5.32702,61.93314,0.00000,0.00000,-0.00000,-0.28370,0.42543,-0.46657,-5.32209,10.70746,-8.12101,0.99237,-0.03951,-0.07475,0.08970,1,0,
06.29 17:04:14:456,42247,9.53223,-2.63845,55.51188,0.00000,0.00000,-0.00000,-0.27526,0.42797,-0.46699,-5.85286,10.11099,-6.21355,0.99359,-0.04601,-0.05841,0.08512,1,0,
06.29 17:04:14:466,42248,9.41427,-0.76094,47.95035,0.00000,0.00000,-0.00000,-0.25936,0.43211,-0.47182,-6.41368,9.35120,-3.55402,0.99477,-0.05320,-0.03542,0.07962,1,0,
06.29 17:04:14:476,42249,9.00909,0.97951,38.14803,0.00000,0.00000,-0.00000,-0.23254,0.43427,-0.47608,-7.17602,8.47979,-0.34878,0.99532,-0.06219,-0.00766,0.07360,1,0,
06.29 17:04:14:485,42250,8.43280,3.06761,27.42426,0.00000,0.00000,-0.00000,-0.20472,0.44147,-0.48180,-8.23557,7.50025,3.27984,0.99474,-0.07349,0.02379,0.06726,1,0,
06.29 17:04:14:497,42251,8.64787,4.76239,16.25502,0.00000,0.00000,-0.00000,-0.17298,0.44549,-0.47805,-9.63205,6.40396,7.13767,0.99269,-0.08713,0.05725,0.06077,1,0,
06.29 17:04:14:506,42252,9.08346,5.74399,4.33014,0.00000,0.00000,-0.00000,-0.13528,0.46002,-0.47471,-11.38849,5.20207,11.04997,0.98899,-0.10300,0.09122,0.05449,1,0,
06.29 17:04:14:516,42253,8.34776,6.42451,-6.27478,0.00000,0.00000,-0.00000,-0.10264,0.47270,-0.45450,-13.43949,3.91819,14.79871,0.98377,-0.12034,0.12386,0.04873,1,0,
06.29 17:04:14:526,42254,7.31381,5.53872,-14.61544,0.00000,0.00000,-0.00000,-0.07197,0.48992,-0.43727,-15.65929,2.57780,18.18031,0.97750,-0.13800,0.15345,0.04352,1,0,
06.29 17:04:14:535,42255,5.73257,2.32564,-20.66262,0.00000,0.00000,-0.00000,-0.04527,0.50310,-0.41809,-17.79725,1.22635,21.08167,0.97093,-0.15400,0.17910,0.03869,1,0,
06.29 17:04:14:546,42256,3.62475,-0.58654,-26.99070,0.00000,0.00000,-0.00000,-0.02255,0.51327,-0.39846,-19.53823,-0.12841,23.51006,0.96487,-0.16589,0.20096,0.03349,1,0,
06.29 17:04:14:555,42257,2.43838,-3.32406,-30.40358,0.00000,0.00000,-0.00000,-0.01070,0.52307,-0.38738,-20.69700,-1.44100,25.34449,0.96019,-0.17253,0.21799,0.02734,1,0,
06.29 17:04:14:565,42258,1.99278,-3.42679,-32.86421,0.00000,0.00000,-0.00000,0.00020,0.52754,-0.38429,-21.16421,-2.60313,26.52888,0.95748,-0.17358,0.22955,0.02039,1,0,
06.29 17:04:14:576,42259,2.06000,-2.88587,-33.75507,0.00000,0.00000,-0.00000,0.00368,0.52410,-0.38677,-21.01597,-3.62639,27.02112,0.95689,-0.16997,0.23520,0.01234,1,0,
06.29 17:04:14:586,42260,1.67917,-3.51180,-33.51613,0.00000,0.00000,-0.00000,-0.00619,0.52176,-0.39631,-20.44081,-4.51993,26.87392,0.95807,-0.16343,0.23532,0.00345,1,0,
06.29 17:04:14:595,42261,0.75814,-4.44661,-31.54067,0.00000,0.00000,-0.00000,-0.01554,0.51203,-0.41036,-19.47601,-5.19740,26.16501,0.96076,-0.15447,0.23033,-0.00528,1,0,
06.29 17:04:14:606,42262,0.19820,-4.28933,-29.40489,0.00000,0.00000,-0.00000,-0.03232,0.50235,-0.42844,-18.06383,-5.59088,24.85701,0.96496,-0.14276,0.21978,-0.01329,1,0,
06.29 17:04:14:616,42263,0.92799,-2.60636,-25.42026,0.00000,0.00000,-0.00000,-0.05503,0.48471,-0.44860,-16.25709,-5.70764,22.88295,0.97047,-0.12864,0.20303,-0.02030,1,0,
06.29 17:04:14:627,42264,1.84658,0.01825,-20.37750,0.00000,0.00000,-0.00000,-0.08417,0.46616,-0.47428,-14.10002,-5.64764,20.26813,0.97683,-0.11207,0.18036,-0.02656,1,0,
06.29 17:04:14:635,42265,3.87508,1.88366,-13.63008,0.00000,0.00000,-0.00000,-0.11978,0.44500,-0.49554,-11.67016,-5.55458,17.12031,0.98331,-0.09324,0.15277,-0.03255,1,0,
06.29 17:04:14:645,42266,5.42813,4.48134,-5.70709,0.00000,0.00000,-0.00000,-0.16431,0.41890,-0.52038,-8.99476,-5.55118,13.62014,0.98918,-0.07204,0.12184,-0.03865,1,0,
06.29 17:04:14:656,42267,6.62600,7.19648,1.30847,0.00000,0.00000,-0.00000,-0.20887,0.39064,-0.53776,-6.19524,-5.70763,10.03275,0.99372,-0.04942,0.08988,-0.04481,1,0,
06.29 17:04:14:666,42268,7.22420,9.87905,7.68330,0.00000,0.00000,-0.00000,-0.25542,0.35938,-0.55517,-3.46315,-6.02130,6.56042,0.99662,-0.02712,0.05870,-0.05068,1,0,
06.29 17:04:14:676,42269,6.96748,12.04084,14.60921,0.00000,0.00000,-0.00000,-0.29702,0.32756,-0.56856,-0.96863,-6.45902,3.27186,0.99798,-0.00683,0.02898,-0.05607,1,0,
06.29 17:04:14:686,42270,8.29385,11.39059,21.19685,0.00000,0.00000,-0.00000,-0.34465,0.30248,-0.57052,1.13451,-7.03593,0.19545,0.99806,0.00999,0.00109,-0.06138,1,0,
06.29 17:04:14:695,42271,7.66452,10.40361,30.61418,0.00000,0.00000,-0.00000,-0.38284,0.28243,-0.57289,2.89133,-7.70667,-2.67479,0.99719,0.02360,-0.02497,-0.06658,1,0,
06.29 17:04:14:706,42272,7.85598,10.16389,41.53510,0.00000,0.00000,-0.00000,-0.42206,0.26175,-0.56880,4.28152,-8.35999,-5.36553,0.99568,0.03381,-0.04937,-0.07102,1,0,
06.29 17:04:14:715,42273,9.30159,12.07728,53.18784,0.00000,0.00000,-0.00000,-0.45586,0.25142,-0.55716,5.04711,-8.86520,-7.65319,0.99405,0.03865,-0.06987,-0.07411,1,0,
06.29 17:04:14:725,42274,9.93368,12.44605,63.91355,0.00000,0.00000,-0.00000,-0.47726,0.24863,-0.54589,5.02904,-9.14396,-9.42083,0.99278,0.03705,-0.08526,-0.07577,1,0,
06.29 17:04:14:736,42275,11.28418,8.79478,69.38039,0.00000,0.00000,-0.00000,-0.49569,0.25381,-0.53308,4.31739,-9.24718,-10.25403,0.99232,0.03020,-0.09203,-0.07687,1,0,
06.29 17:04:14:746,42276,9.58549,3.30964,67.16966,0.00000,0.00000,-0.00000,-0.49922,0.26509,-0.52361,3.18506,-9.30086,-9.85134,0.99284,0.02064,-0.08779,-0.07837,1,0,
06.29 17:04:14:756,42277,8.99753,0.47379,58.06177,0.00000,0.00000,-0.00000,-0.48930,0.27262,-0.52400,1.90100,-9.40243,-8.25911,0.99401,0.01059,-0.07312,-0.08055,1,0,
06.29 17:04:14:766,42278,7.91830,1.64640,47.88284,0.00000,0.00000,-0.00000,-0.46892,0.28729,-0.52976,0.51206,-9.62441,-5.70432,0.99525,0.00027,-0.04996,-0.08356,1,0,
06.29 17:04:14:776,42279,7.51831,3.66679,39.07651,0.00000,0.00000,-0.00000,-0.44059,0.29705,-0.53896,-1.08329,-10.00484,-2.62624,0.99587,-0.01141,-0.02200,-0.08739,1,0,
06.29 17:04:14:786,42280,7.99470,4.66612,31.27716,0.00000,0.00000,-0.00000,-0.40584,0.31472,-0.54309,-2.96485,-10.50438,0.57156,0.99547,-0.02530,0.00733,-0.09138,1,0,
06.29 17:04:14:796,42281,8.26023,4.86998,23.13610,0.00000,0.00000,-0.00000,-0.36912,0.32880,-0.54225,-5.05886,-11.13104,3.95192,0.99387,-0.04056,0.03856,-0.09532,1,0,
06.29 17:04:14:805,42282,8.90469,5.12396,13.76495,0.00000,0.00000,-0.00000,-0.33637,0.34689,-0.54242,-7.20955,-11.85031,7.43767,0.99102,-0.05572,0.07086,-0.09875,1,0,
06.29 17:04:14:815,42283,8.92009,4.54047,4.61860,0.00000,0.00000,-0.00000,-0.29570,0.36496,-0.54054,-9.30298,-12.67445,11.00849,0.98691,-0.06967,0.10393,-0.10178,1,0,
06.29 17:04:14:826,42284,9.10267,3.92720,-4.82855,0.00000,0.00000,-0.00000,-0.25851,0.38345,-0.53570,-11.21738,-13.61247,14.60133,0.98166,-0.08127,0.13707,-0.10466,1,0,
06.29 17:04:14:836,42285,8.16729,2.99796,-13.18152,0.00000,0.00000,-0.00000,-0.22181,0.39646,-0.53138,-12.89650,-14.66954,18.04385,0.97560,-0.09012,0.16871,-0.10782,1,0,
06.29 17:04:14:846,42286,6.54779,0.31494,-21.17905,0.00000,0.00000,-0.00000,-0.18460,0.40953,-0.52954,-14.34951,-15.78848,21.23820,0.96910,-0.09648,0.19796,-0.11114,1,0,
06.29 17:04:14:856,42287,4.62724,-1.89918,-27.45165,0.00000,0.00000,-0.00000,-0.15038,0.41706,-0.52625,-15.54112,-16.89154,24.00269,0.96278,-0.10056,0.22322,-0.11453,1,0,
06.29 17:04:14:866,42288,5.15689,-5.21488,-32.73789,0.00000,0.00000,-0.00000,-0.12460,0.42553,-0.52153,-16.31348,-17.86736,26.24303,0.95735,-0.10160,0.24345,-0.11789,1,0,
06.29 17:04:14:875,42289,2.42457,-7.22771,-35.86980,0.00000,0.00000,-0.00000,-0.10524,0.42512,-0.52287,-16.61572,-18.65603,27.87119,0.95332,-0.09976,0.25788,-0.12133,1,0,
06.29 17:04:14:885,42290,4.87228,-10.28532,-36.57082,0.00000,0.00000,-0.00000,-0.09330,0.42276,-0.52776,-16.41813,-19.17583,28.51883,0.95172,-0.09585,0.26343,-0.12510,1,0,
06.29 17:04:14:896,42291,2.59708,-11.40064,-33.77261,0.00000,0.00000,-0.00000,-0.09278,0.41686,-0.53226,-15.71079,-19.35886,28.39495,0.95232,-0.08976,0.26178,-0.12843,1,0,
06.29 17:04:14:905,42292,2.55721,-11.73374,-31.89647,0.00000,0.00000,-0.00000,-0.10166,0.40453,-0.54133,-14.47336,-19.09629,27.50086,0.95522,-0.08155,0.25283,-0.13031,1,0,
06.29 17:04:14:916,42293,2.54467,-10.45492,-28.66133,0.00000,0.00000,-0.00000,-0.11100,0.39182,-0.55688,-12.69127,-18.38643,25.93575,0.96005,-0.07069,0.23737,-0.13025,1,0,
06.29 17:04:14:926,42294,3.95976,-6.55741,-24.89365,0.00000,0.00000,-0.00000,-0.13377,0.37400,-0.56808,-10.40669,-17.29747,23.64578,0.96646,-0.05707,0.21507,-0.12821,1,0,
06.29 17:04:14:936,42295,6.29907,-2.05712,-18.97485,0.00000,0.00000,-0.00000,-0.16345,0.35327,-0.58482,-7.81437,-16.03875,20.62640,0.97366,-0.04147,0.18622,-0.12486,1,0,
06.29 17:04:14:945,42296,8.68814,1.57747,-11.73478,0.00000,0.00000,-0.00000,-0.19661,0.32952,-0.60109,-5.06167,-14.89733,17.04432,0.98051,-0.02411,0.15246,-0.12159,1,0,
06.29 17:04:14:955,42297,10.04076,5.19446,-2.79360,0.00000,0.00000,-0.00000,-0.24021,0.30363,-0.61199,-2.31704,-14.04597,13.16523,0.98604,-0.00592,0.11621,-0.11914,1,0,
06.29 17:04:14:965,42298,9.73497,6.76073,5.39950,0.00000,0.00000,-0.00000,-0.28482,0.27370,-0.62041,0.27452,-13.53812,9.28907,0.98974,0.01192,0.08013,-0.11767,1,0,
06.29 17:04:14:976,42299,9.15400,8.21119,11.78619,0.00000,0.00000,-0.00000,-0.32946,0.24866,-0.62385,2.70444,-13.28396,5.52626,0.99173,0.02899,0.04514,-0.11663,1,0,
06.29 17:04:14:987,42300,9.29446,9.50811,19.47332,0.00000,0.00000,-0.00000,-0.37811,0.22493,-0.61885,4.86976,-13.17982,1.90857,0.99228,0.04411,0.01165,-0.11535,1,0,
06.29 17:04:14:996,42301,7.27675,11.23827,27.78943,0.00000,0.00000,-0.00000,-0.41933,0.20667,-0.61128,6.60291,-13.03614,-1.56213,0.99188,0.05567,-0.02006,-0.11254,1,0,
06.29 17:04:15:006,42302,9.53018,12.53198,39.31481,0.00000,0.00000,-0.00000,-0.45563,0.19630,-0.59817,7.58766,-12.66691,-4.91304,0.99112,0.06098,-0.04980,-0.10715,1,0,
06.29 17:04:15:016,42303,9.60019,12.66360,53.22312,0.00000,0.00000,-0.00000,-0.48699,0.19932,-0.57900,7.77318,-12.07386,-8.11061,0.99019,0.05982,-0.07728,-0.09990,1,0,
06.29 17:04:15:025,42304,11.94089,13.14814,67.12103,0.00000,0.00000,-0.00000,-0.51192,0.21031,-0.55825,7.31173,-11.22914,-10.93586,0.98925,0.05387,-0.10085,-0.09115,1,0,
06.29 17:04:15:035,42305,13.38599,13.59244,76.92074,0.00000,0.00000,-0.00000,-0.52594,0.22830,-0.53590,6.22974,-10.25430,-12.72775,0.98894,0.04390,-0.11506,-0.08269,1,0,
06.29 17:04:15:046,42306,12.46220,6.95434,79.60948,0.00000,0.00000,-0.00000,-0.52753,0.25140,-0.51792,4.67384,-9.45036,-12.94458,0.98980,0.03110,-0.11558,-0.07720,1,0,
06.29 17:04:15:056,42307,9.52448,0.35021,71.91717,0.00000,0.00000,-0.00000,-0.51567,0.26978,-0.51079,3.10109,-8.92534,-11.47781,0.99182,0.01906,-0.10175,-0.07469,1,0,
06.29 17:04:15:065,42308,8.29258,0.15665,57.96097,0.00000,0.00000,-0.00000,-0.48833,0.28502,-0.51947,1.73504,-8.68571,-8.65029,0.99426,0.00934,-0.07633,-0.07436,1,0,
06.29 17:04:15:076,42309,6.78417,1.61453,44.26558,0.00000,0.00000,-0.00000,-0.45502,0.29737,-0.53210,0.32312,-8.69121,-5.03943,0.99617,-0.00052,-0.04405,-0.07558,1,0,
06.29 17:04:15:089,42310,6.57254,2.70145,32.75952,0.00000,0.00000,-0.00000,-0.41430,0.30760,-0.53821,-1.37814,-8.82335,-1.20371,0.99690,-0.01280,-0.00955,-0.07704,1,0,
06.29 17:04:15:095,42311,7.38260,2.89749,23.15412,0.00000,0.00000,-0.00000,-0.37307,0.32288,-0.54629,-3.39111,-9.03302,2.65043,0.99625,-0.02767,0.02537,-0.07801,1,0,
06.29 17:04:15:106,42312,8.73668,3.49230,14.38359,0.00000,0.00000,-0.00000,-0.32890,0.34402,-0.54785,-5.58070,-9.33468,6.55603,0.99410,-0.04379,0.06088,-0.07837,1,0,
06.29 17:04:15:115,42313,10.03797,4.53347,5.38540,0.00000,0.00000,-0.00000,-0.28327,0.36106,-0.54344,-7.75099,-9.74718,10.48780,0.99047,-0.05932,0.09658,-0.07825,1,0,
06.29 17:04:15:125,42314,11.54866,6.68027,-3.99035,0.00000,0.00000,-0.00000,-0.23616,0.38058,-0.53851,-9.83819,-10.29346,14.39090,0.98545,-0.07354,0.13192,-0.07798,1,0,
06.29 17:04:15:137,42315,11.89229,7.53718,-14.62462,0.00000,0.00000,-0.00000,-0.19552,0.40200,-0.52965,-11.76358,-10.89885,18.11965,0.97942,-0.08587,0.16554,-0.07723,1,0,
06.29 17:04:15:146,42316,9.52388,7.50460,-22.40916,0.00000,0.00000,-0.00000,-0.15092,0.41890,-0.51878,-13.52512,-11.52995,21.49887,0.97289,-0.09650,0.19590,-0.07615,1,0,
06.29 17:04:15:156,42317,7.20653,5.24923,-29.04195,0.00000,0.00000,-0.00000,-0.11524,0.43079,-0.50850,-15.03914,-12.01729,24.38465,0.96661,-0.10529,0.22162,-0.07395,1,0,
06.29 17:04:15:166,42318,5.53803,2.50371,-34.07742,0.00000,0.00000,-0.00000,-0.08355,0.44314,-0.49675,-16.27921,-12.23035,26.67045,0.96123,-0.11266,0.24170,-0.07014,1,0,
06.29 17:04:15:175,42319,5.64024,0.33296,-38.33911,0.00000,0.00000,-0.00000,-0.05632,0.45398,-0.48505,-17.13223,-12.18065,28.35534,0.95718,-0.11790,0.25615,-0.06544,1,0,
06.29 17:04:15:185,42320,4.92262,-2.98293,-38.80445,0.00000,0.00000,-0.00000,-0.03949,0.46088,-0.47792,-17.59634,-11.91418,29.36255,0.95483,-0.12117,0.26446,-0.06066,1,0,
06.29 17:04:15:195,42321,2.60279,-8.12790,-38.15237,0.00000,0.00000,-0.00000,-0.02910,0.46528,-0.47185,-17.61288,-11.38108,29.62910,0.95454,-0.12222,0.26611,-0.05578,1,0,
06.29 17:04:15:206,42322,1.40130,-11.24100,-36.11219,0.00000,0.00000,-0.00000,-0.02414,0.46429,-0.47132,-16.97686,-10.44701,29.13000,0.95666,-0.11963,0.26070,-0.05018,1,0,
06.29 17:04:15:216,42323,1.47829,-9.97426,-31.84572,0.00000,0.00000,-0.00000,-0.02807,0.46093,-0.47883,-15.53119,-8.95222,27.75200,0.96151,-0.11223,0.24713,-0.04277,1,0,
06.29 17:04:15:226,42324,2.88032,-6.00887,-28.09210,0.00000,0.00000,-0.00000,-0.03742,0.45218,-0.49237,-13.44283,-6.94776,25.42236,0.96857,-0.10072,0.22504,-0.03300,1,0,
06.29 17:04:15:236,42325,6.97859,-1.50111,-22.12316,0.00000,0.00000,-0.00000,-0.05573,0.43933,-0.50152,-10.99848,-4.76550,22.18857,0.97672,-0.08600,0.19528,-0.02219,1,0,
06.29 17:04:15:246,42326,9.68977,3.00186,-13.76212,0.00000,0.00000,-0.00000,-0.08389,0.41923,-0.52471,-8.43755,-2.77771,18.36148,0.98451,-0.06874,0.16083,-0.01213,1,0,
06.29 17:04:15:255,42327,11.75620,5.20616,-5.36562,0.00000,0.00000,-0.00000,-0.11657,0.40091,-0.53748,-5.93296,-1.20000,14.25980,0.99095,-0.05005,0.12448,-0.00395,1,0,
06.29 17:04:15:265,42328,11.36569,5.53244,2.92330,0.00000,0.00000,-0.00000,-0.15718,0.37808,-0.55133,-3.54255,-0.03378,10.21717,0.99555,-0.03076,0.08901,0.00246,1,0,
06.29 17:04:15:275,42329,10.91472,6.08258,8.58901,0.00000,0.00000,-0.00000,-0.19678,0.36037,-0.57062,-1.27367,0.84139,6.31926,0.99839,-0.01150,0.05503,0.00794,1,0,
06.29 17:04:15:286,42330,9.99967,6.49527,15.17747,0.00000,0.00000,-0.00000,-0.23200,0.34182,-0.57246,0.83658,1.51623,2.56156,0.99964,0.00700,0.02245,0.01306,1,0,
