Time,Counter,ax,ay,az,gx,gy,gz,mx,my,mz,roll,yaw,pitch,q0,q1,q2,q3,debug0,debug1,debug2,debug3,Rest,Mag Disturbance,
07.02 17:09:34:629,260,-0.07388,-0.14276,9.81853,-647408939108925440.00000,0.00000,-24685744208244365821214720.00000,0.29019,-0.06382,-0.56475,-0.98080,100.38675,0.39203,0.64015,-0.00811,-0.00438,0.76820,0.00000,0.00000,0.00000,0.00000,1,0,
07.02 17:09:34:638,261,-0.06788,-0.18508,9.79028,-647408939108925440.00000,0.00000,-24685744208244365821214720.00000,0.29119,-0.06229,-0.56623,-0.98212,100.39616,0.39182,0.64009,-0.00811,-0.00440,0.76825,0.00000,0.00000,0.00000,0.00000,1,0,
07.02 17:09:34:651,262,-0.03028,-0.18842,9.79078,-647408939108925440.00000,0.00000,-24685744208244365821214720.00000,0.29316,-0.06384,-0.56324,-0.98360,100.39566,0.39048,0.64009,-0.00811,-0.00441,0.76825,0.00000,0.00000,0.00000,0.00000,1,0,
07.02 17:09:34:660,263,-0.01042,-0.18054,9.78723,-647408939108925440.00000,0.00000,-24685744208244365821214720.00000,0.29019,-0.06381,-0.56525,-0.98295,100.39570,0.38971,0.64009,-0.00810,-0.00441,0.76825,0.00000,0.00000,0.00000,0.00000,1,0,
07.02 17:09:34:669,264,-0.03870,-0.17039,9.80125,-647408939108925440.00000,0.00000,-24685744208244365821214720.00000,0.29169,-0.06579,-0.56574,-0.98239,100.36101,0.39200,0.64032,-0.00812,-0.00439,0.76805,0.00000,0.00000,0.00000,0.00000,1,0,
07.02 17:09:34:680,265,-0.06742,-0.17251,9.79033,-647408939108925440.00000,0.00000,-24685744208244365821214720.00000,0.29318,-0.06475,-0.56772,-0.98349,100.32722,0.39455,0.64055,-0.00814,-0.00438,0.76786,0.00000,0.00000,0.00000,0.00000,1,0,
07.02 17:09:34:689,266,-0.08636,-0.16600,9.83195,-647408939108925440.00000,0.00000,-24685744208244365821214720.00000,0.29068,-0.06434,-0.56375,-0.98214,100.33939,0.39485,0.64047,-0.00814,-0.00437,0.76793,0.00000,0.00000,0.00000,0.00000,1,0,
07.02 17:09:34:698,267,-0.09605,-0.16927,9.81879,-647408939108925440.00000,0.00000,-24685744208244365821214720.00000,0.29366,-0.06182,-0.56422,-0.98395,100.37229,0.39542,0.64025,-0.00815,-0.00439,0.76811,0.00000,0.00000,0.00000,0.00000,1,0,
07.02 17:09:34:709,268,-0.08700,-0.15639,9.80561,-647408939108925440.00000,0.00000,-24685744208244365821214720.00000,0.29118,-0.06382,-0.56474,-0.98521,100.38072,0.39472,0.64019,-0.00815,-0.00440,0.76816,0.00000,0.00000,0.00000,0.00000,1,0,
07.02 17:09:34:719,269,-0.05082,-0.16514,9.80714,-647408939108925440.00000,0.00000,-24685744208244365821214720.00000,0.29367,-0.06428,-0.56622,-0.98469,100.36603,0.39435,0.64029,-0.00815,-0.00440,0.76808,0.00000,0.00000,0.00000,0.00000,1,0,
07.02 17:09:34:729,270,-0.05157,-0.17913,9.80487,-647408939108925440.00000,0.00000,-24685744208244365821214720.00000,0.29169,-0.06430,-0.56574,-0.98442,100.36069,0.39497,0.64032,-0.00815,-0.00439,0.76805,0.00000,0.00000,0.00000,0.00000,1,0,
07.02 17:09:34:739,271,-0.06391,-0.16616,9.78174,-647408939108925440.00000,0.00000,-24685744208244365821214720.00000,0.29169,-0.06578,-0.56624,-0.98442,100.33491,0.39548,0.64050,-0.00815,-0.00439,0.76791,0.00000,0.00000,0.00000,0.00000,1,0,
07.02 17:09:34:749,272,-0.05191,-0.17009,9.81136,-647408939108925440.00000,0.00000,-24685744208244365821214720.00000,0.29169,-0.06629,-0.56574,-0.98480,100.33600,0.39676,0.64049,-0.00816,-0.00438,0.76791,0.00000,0.00000,0.00000,0.00000,1,0,
07.02 17:09:34:759,273,-0.05336,-0.13909,9.79376,-647408939108925440.00000,0.00000,-24685744208244365821214720.00000,0.29218,-0.06531,-0.56474,-0.98422,100.33518,0.39654,0.64049,-0.00816,-0.00438,0.76791,0.00000,0.00000,0.00000,0.00000,1,0,
07.02 17:09:34:769,274,-0.08129,-0.14526,9.81398,-647408939108925440.00000,0.00000,-24685744208244365821214720.00000,0.29317,-0.06230,-0.56522,-0.98173,100.34095,0.39695,0.64046,-0.00815,-0.00436,0.76794,0.00000,0.00000,0.00000,0.00000,1,0,
07.02 17:09:34:779,275,-0.07203,-0.18257,9.77545,-647408939108925440.00000,0.00000,-24685744208244365821214720.00000,0.29267,-0.06581,-0.56474,-0.98298,100.33961,0.39719,0.64046,-0.00816,-0.00437,0.76793,0.00000,0.00000,0.00000,0.00000,1,0,
07.02 17:09:34:791,276,-0.06657,-0.20135,9.83312,-647408939108925440.00000,0.00000,-24685744208244365821214720.00000,0.29218,-0.06428,-0.56623,-0.98453,100.32310,0.39553,0.64057,-0.00815,-0.00439,0.76784,0.00000,0.00000,0.00000,0.00000,1,0,
07.02 17:09:34:800,277,-0.04882,-0.18789,9.78918,-647408939108925440.00000,0.00000,-24685744208244365821214720.00000,0.29366,-0.06582,-0.56423,-0.98549,100.32175,0.39529,0.64058,-0.00816,-0.00439,0.76783,0.00000,0.00000,0.00000,0.00000,1,0,
07.02 17:09:34:809,278,-0.05598,-0.15063,9.80371,-647408939108925440.00000,0.00000,-24685744208244365821214720.00000,0.29169,-0.06327,-0.56723,-0.98373,100.32376,0.39687,0.64057,-0.00816,-0.00437,0.76784,0.00000,0.00000,0.00000,0.00000,1,0,
07.02 17:09:34:819,279,-0.06638,-0.14441,9.79028,-647408939108925440.00000,0.00000,-24685744208244365821214720.00000,0.29317,-0.06479,-0.56573,-0.98264,100.33451,0.39753,0.64050,-0.00816,-0.00436,0.76790,0.00000,0.00000,0.00000,0.00000,1,0,
07.02 17:09:34:829,280,-0.10444,-0.14992,9.80721,-647408939108925440.00000,0.00000,-24685744208244365821214720.00000,0.29219,-0.06578,-0.56624,-0.98289,100.31953,0.39836,0.64060,-0.00816,-0.00436,0.76782,0.00000,0.00000,0.00000,0.00000,1,0,
07.02 17:09:34:839,281,-0.10196,-0.16904,9.81987,-647408939108925440.00000,0.00000,-24685744208244365821214720.00000,0.29218,-0.06332,-0.56473,-0.98351,100.30660,0.39868,0.64069,-0.00817,-0.00436,0.76775,0.00000,0.00000,0.00000,0.00000,1,0,
07.02 17:09:34:849,282,-0.09293,-0.16634,9.81219,-647408939108925440.00000,0.00000,-24685744208244365821214720.00000,0.29267,-0.06432,-0.56424,-0.98393,100.30363,0.39847,0.64071,-0.00817,-0.00436,0.76773,0.00000,0.00000,0.00000,0.00000,1,0,
07.02 17:09:34:859,283,-0.06329,-0.16227,9.80919,-647408939108925440.00000,0.00000,-24685744208244365821214720.00000,0.29119,-0.06380,-0.56574,-0.98335,100.29617,0.39780,0.64076,-0.00816,-0.00436,0.76769,0.00000,0.00000,0.00000,0.00000,1,0,
07.02 17:09:34:869,284,-0.05166,-0.14746,9.77466,-647408939108925440.00000,0.00000,-24685744208244365821214720.00000,0.29269,-0.06526,-0.56723,-0.98337,100.32207,0.39625,0.64058,-0.00815,-0.00437,0.76783,0.00000,0.00000,0.00000,0.00000,1,0,
07.02 17:09:34:879,285,-0.04832,-0.16645,9.80902,-647408939108925440.00000,0.00000,-24685744208244365821214720.00000,0.29218,-0.06332,-0.56473,-0.98222,100.32497,0.39567,0.64056,-0.00814,-0.00437,0.76785,0.00000,0.00000,0.00000,0.00000,1,0,
07.02 17:09:34:889,286,-0.02960,-0.17227,9.79464,-647408939108925440.00000,0.00000,-24685744208244365821214720.00000,0.29168,-0.06630,-0.56525,-0.98338,100.32412,0.39617,0.64057,-0.00815,-0.00437,0.76785,0.00000,0.00000,0.00000,0.00000,1,0,
07.02 17:09:34:899,287,-0.04941,-0.14957,9.80701,-647408939108925440.00000,0.00000,-24685744208244365821214720.00000,0.29317,-0.06429,-0.56573,-0.98550,100.35593,0.39641,0.64035,-0.00816,-0.00439,0.76802,0.00000,0.00000,0.00000,0.00000,1,0,
07.02 17:09:34:909,288,-0.05176,-0.14216,9.79002,-647408939108925440.00000,0.00000,-24685744208244365821214720.00000,0.29219,-0.06328,-0.56673,-0.98636,100.34703,0.39773,0.64041,-0.00818,-0.00439,0.76797,0.00000,0.00000,0.00000,0.00000,1,0,
07.02 17:09:34:919,289,-0.06394,-0.15359,9.78987,-647408939108925440.00000,0.00000,-24685744208244365821214720.00000,0.29218,-0.06331,-0.56523,-0.98734,100.35001,0.39903,0.64039,-0.00819,-0.00439,0.76799,0.00000,0.00000,0.00000,0.00000,1,0,
07.02 17:09:34:929,290,-0.08559,-0.17817,9.82075,-647408939108925440.00000,0.00000,-24685744208244365821214720.00000,0.29317,-0.06381,-0.56473,-0.98639,100.35015,0.39860,0.64039,-0.00818,-0.00438,0.76799,0.00000,0.00000,0.00000,0.00000,1,0,
07.02 17:09:34:939,291,-0.09260,-0.17174,9.81009,-647408939108925440.00000,0.00000,-24685744208244365821214720.00000,0.29218,-0.06431,-0.56524,-0.98657,100.35067,0.39984,0.64039,-0.00819,-0.00438,0.76799,0.00000,0.00000,0.00000,0.00000,1,0,
07.02 17:09:34:949,292,-0.06839,-0.17099,9.79745,-647408939108925440.00000,0.00000,-24685744208244365821214720.00000,0.29317,-0.06331,-0.56473,-0.98753,100.35044,0.40037,0.64039,-0.00820,-0.00438,0.76799,0.00000,0.00000,0.00000,0.00000,1,0,
07.02 17:09:34:959,293,-0.05215,-0.15501,9.80737,-647408939108925440.00000,0.00000,-24685744208244365821214720.00000,0.29317,-0.06330,-0.56522,-0.98801,100.34945,0.40011,0.64040,-0.00820,-0.00439,0.76799,0.00000,0.00000,0.00000,0.00000,1,0,
07.02 17:09:34:969,294,-0.05493,-0.18019,9.79528,-647408939108925440.00000,0.00000,-24685744208244365821214720.00000,0.29368,-0.06574,-0.56822,-0.98878,100.34575,0.40047,0.64042,-0.00821,-0.00439,0.76797,0.00000,0.00000,0.00000,0.00000,1,0,
07.02 17:09:34:980,295,-0.07260,-0.17170,9.80015,-647408939108925440.00000,0.00000,-24685744208244365821214720.00000,0.29069,-0.06230,-0.56574,-0.98889,100.33668,0.40072,0.64048,-0.00821,-0.00439,0.76792,0.00000,0.00000,0.00000,0.00000,1,0,
07.02 17:09:34:989,296,-0.08055,-0.16969,9.81472,-647408939108925440.00000,0.00000,-24685744208244365821214720.00000,0.29218,-0.06330,-0.56573,-0.98657,100.34808,0.40124,0.64041,-0.00820,-0.00437,0.76798,0.00000,0.00000,0.00000,0.00000,1,0,
07.02 17:09:34:999,297,-0.08130,-0.16993,9.79965,-647408939108925440.00000,0.00000,-24685744208244365821214720.00000,0.28970,-0.06430,-0.56575,-0.98710,100.35043,0.40151,0.64039,-0.00821,-0.00437,0.76799,0.00000,0.00000,0.00000,0.00000,1,0,
07.02 17:09:35:009,298,-0.06217,-0.17856,9.79178,-647408939108925440.00000,0.00000,-24685744208244365821214720.00000,0.29169,-0.06430,-0.56574,-0.98880,100.35624,0.40093,0.64035,-0.00821,-0.00439,0.76803,0.00000,0.00000,0.00000,0.00000,1,0,
07.02 17:09:35:019,299,-0.06358,-0.17933,9.77626,-647408939108925440.00000,0.00000,-24685744208244365821214720.00000,0.29268,-0.06530,-0.56524,-0.98916,100.36202,0.40076,0.64031,-0.00821,-0.00439,0.76806,0.00000,0.00000,0.00000,0.00000,1,0,
07.02 17:09:35:029,300,-0.01705,-0.15338,9.81281,-647408939108925440.00000,0.00000,-24685744208244365821214720.00000,0.29168,-0.06580,-0.56525,-0.98767,100.33470,0.40088,0.64050,-0.00821,-0.00438,0.76790,0.00000,0.00000,0.00000,0.00000,1,0,
07.02 17:09:35:039,301,-0.03159,-0.14208,9.77280,-647408939108925440.00000,0.00000,-24685744208244365821214720.00000,0.29316,-0.06434,-0.56324,-0.98780,100.33006,0.40154,0.64053,-0.00821,-0.00437,0.76788,0.00000,0.00000,0.00000,0.00000,1,0,
07.02 17:09:35:049,302,-0.07358,-0.17480,9.83084,-647408939108925440.00000,0.00000,-24685744208244365821214720.00000,0.29219,-0.06377,-0.56722,-0.98677,100.32349,0.40192,0.64057,-0.00821,-0.00437,0.76784,0.00000,0.00000,0.00000,0.00000,1,0,
07.02 17:09:35:058,303,-0.10362,-0.15755,9.75945,-647408939108925440.00000,0.00000,-24685744208244365821214720.00000,0.29169,-0.06428,-0.56673,-0.98622,100.32623,0.40287,0.64055,-0.00821,-0.00436,0.76786,0.00000,0.00000,0.00000,0.00000,1,0,
07.02 17:09:35:069,304,-0.08616,-0.19071,9.84407,-647408939108925440.00000,0.00000,-24685744208244365821214720.00000,0.29317,-0.06429,-0.56573,-0.98528,100.32970,0.40217,0.64053,-0.00820,-0.00435,0.76788,0.00000,0.00000,0.00000,0.00000,1,0,
07.02 17:09:35:079,305,-0.06222,-0.12797,9.78940,-647408939108925440.00000,0.00000,-24685744208244365821214720.00000,0.29317,-0.06480,-0.56523,-0.98429,100.32156,0.40126,0.64058,-0.00819,-0.00435,0.76783,0.00000,0.00000,0.00000,0.00000,1,0,
07.02 17:09:35:089,306,-0.04570,-0.16285,9.83546,-647408939108925440.00000,0.00000,-24685744208244365821214720.00000,0.29069,-0.06481,-0.56525,-0.98538,100.31226,0.40152,0.64065,-0.00820,-0.00436,0.76778,0.00000,0.00000,0.00000,0.00000,1,0,
07.02 17:09:35:099,307,-0.06395,-0.13268,9.75180,-647408939108925440.00000,0.00000,-24685744208244365821214720.00000,0.29418,-0.06526,-0.56721,-0.98615,100.30688,0.40154,0.64068,-0.00820,-0.00436,0.76775,0.00000,0.00000,0.00000,0.00000,1,0,
07.02 17:09:35:110,308,-0.02917,-0.16954,9.88648,-647408939108925440.00000,0.00000,-24685744208244365821214720.00000,0.28920,-0.06431,-0.56526,-0.98451,100.30045,0.39957,0.64073,-0.00818,-0.00436,0.76771,0.00000,0.00000,0.00000,0.00000,1,0,
07.02 17:09:35:120,309,-0.01233,-0.11852,9.68089,-647408939108925440.00000,0.00000,-24685744208244365821214720.00000,0.29369,-0.06573,-0.56871,-0.98524,100.32221,0.39906,0.64058,-0.00818,-0.00437,0.76784,0.00000,0.00000,0.00000,0.00000,1,0,
07.02 17:09:35:130,310,-0.07025,-0.19423,9.90513,-647408939108925440.00000,0.00000,-24685744208244365821214720.00000,0.29417,-0.06476,-0.56721,-0.98511,100.31393,0.40072,0.64064,-0.00819,-0.00436,0.76779,0.00000,0.00000,0.00000,0.00000,1,0,
07.02 17:09:35:140,311,-0.02360,-0.12301,9.69663,-647408939108925440.00000,0.00000,-24685744208244365821214720.00000,0.29217,-0.06333,-0.56424,-0.98390,100.30451,0.39812,0.64070,-0.00817,-0.00437,0.76774,0.00000,0.00000,0.00000,0.00000,1,0,
07.02 17:09:35:150,312,-0.07768,-0.18103,9.89716,-647408939108925440.00000,0.00000,-24685744208244365821214720.00000,0.29317,-0.06431,-0.56473,-0.98443,100.30622,0.40098,0.64069,-0.00819,-0.00435,0.76775,0.00000,0.00000,0.00000,0.00000,1,0,
07.02 17:09:35:159,313,-0.06981,-0.14117,9.72762,-647408939108925440.00000,0.00000,-24685744208244365821214720.00000,0.29317,-0.06231,-0.56472,-0.98622,100.30866,0.40279,0.64067,-0.00821,-0.00436,0.76776,0.00000,0.00000,0.00000,0.00000,1,0,
07.02 17:09:35:170,314,-0.08839,-0.16716,9.89237,-647408939108925440.00000,0.00000,-24685744208244365821214720.00000,0.29169,-0.06379,-0.56623,-0.98393,100.31606,0.40268,0.64062,-0.00820,-0.00434,0.76780,0.00000,0.00000,0.00000,0.00000,1,0,
07.02 17:09:35:179,315,-0.07086,-0.15712,9.76088,-647408939108925440.00000,0.00000,-24685744208244365821214720.00000,0.29467,-0.06577,-0.56671,-0.98491,100.31356,0.40234,0.64064,-0.00820,-0.00435,0.76779,0.00000,0.00000,0.00000,0.00000,1,0,
07.02 17:09:35:189,316,-0.09508,-0.21126,9.81310,-647408939108925440.00000,0.00000,-24685744208244365821214720.00000,0.29167,-0.06435,-0.56325,-0.98581,100.33025,0.40377,0.64053,-0.00822,-0.00435,0.76788,0.00000,0.00000,0.00000,0.00000,1,0,
07.02 17:09:35:199,317,-0.04868,-0.18821,9.78573,-647408939108925440.00000,0.00000,-24685744208244365821214720.00000,0.29318,-0.06378,-0.56622,-0.98711,100.34469,0.40303,0.64043,-0.00822,-0.00436,0.76796,0.00000,0.00000,0.00000,0.00000,1,0,
07.02 17:09:35:209,318,-0.09486,-0.21597,9.81941,-647408939108925440.00000,0.00000,-24685744208244365821214720.00000,0.28971,-0.06426,-0.56774,-0.98710,100.34541,0.40460,0.64042,-0.00823,-0.00435,0.76796,0.00000,0.00000,0.00000,0.00000,1,0,
07.02 17:09:35:219,319,-0.10367,-0.21578,9.80313,-647408939108925440.00000,0.00000,-24685744208244365821214720.00000,0.29318,-0.06527,-0.56672,-0.98702,100.37373,0.40574,0.64023,-0.00823,-0.00435,0.76812,0.00000,0.00000,0.00000,0.00000,1,0,
07.02 17:09:35:229,320,-0.10334,-0.18412,9.81279,-647408939108925440.00000,0.00000,-24685744208244365821214720.00000,0.29218,-0.06279,-0.56623,-0.98554,100.39052,0.40474,0.64012,-0.00822,-0.00435,0.76822,0.00000,0.00000,0.00000,0.00000,1,0,
07.02 17:09:35:239,321,-0.09916,-0.16676,9.85761,-647408939108925440.00000,0.00000,-24685744208244365821214720.00000,0.29068,-0.06234,-0.56375,-0.98305,100.38837,0.40297,0.64014,-0.00819,-0.00434,0.76820,0.00000,0.00000,0.00000,0.00000,1,0,
07.02 17:09:35:249,322,-0.09060,-0.17315,9.77347,-647408939108925440.00000,0.00000,-24685744208244365821214720.00000,0.29218,-0.06180,-0.56572,-0.98336,100.39979,0.40195,0.64006,-0.00819,-0.00435,0.76827,0.00000,0.00000,0.00000,0.00000,1,0,
07.02 17:09:35:260,323,-0.05828,-0.17430,9.79901,-647408939108925440.00000,0.00000,-24685744208244365821214720.00000,0.28970,-0.06481,-0.56526,-0.98416,100.37637,0.39996,0.64022,-0.00818,-0.00436,0.76814,0.00000,0.00000,0.00000,0.00000,1,0,
07.02 17:09:35:269,324,-0.01175,-0.15289,9.78835,-647408939108925440.00000,0.00000,-24685744208244365821214720.00000,0.29268,-0.06579,-0.56573,-0.98392,100.33592,0.39723,0.64049,-0.00816,-0.00437,0.76791,0.00000,0.00000,0.00000,0.00000,1,0,
07.02 17:09:35:279,325,0.00673,-0.16948,9.77958,-647408939108925440.00000,0.00000,-24685744208244365821214720.00000,0.29269,-0.06425,-0.56772,-0.98347,100.33029,0.39781,0.64053,-0.00816,-0.00437,0.76788,0.00000,0.00000,0.00000,0.00000,1,0,
07.02 17:09:35:288,326,-0.03433,-0.13427,9.78465,-647408939108925440.00000,0.00000,-24685744208244365821214720.00000,0.29070,-0.06376,-0.56773,-0.98281,100.34203,0.40035,0.64045,-0.00818,-0.00435,0.76795,0.00000,0.00000,0.00000,0.00000,1,0,
07.02 17:09:35:299,327,-0.06083,-0.12046,9.80780,-647408939108925440.00000,0.00000,-24685744208244365821214720.00000,0.29268,-0.06578,-0.56623,-0.98193,100.37469,0.40141,0.64023,-0.00818,-0.00434,0.76813,0.00000,0.00000,0.00000,0.00000,1,0,
07.02 17:09:35:309,328,-0.08287,-0.10544,9.81119,-647408939108925440.00000,0.00000,-24685744208244365821214720.00000,0.29318,-0.06528,-0.56623,-0.98155,100.38641,0.40326,0.64015,-0.00819,-0.00433,0.76819,0.00000,0.00000,0.00000,0.00000,1,0,
07.02 17:09:35:319,329,-0.09692,-0.15460,9.80995,-647408939108925440.00000,0.00000,-24685744208244365821214720.00000,0.29467,-0.06427,-0.56671,-0.98231,100.36615,0.40453,0.64029,-0.00820,-0.00432,0.76808,0.00000,0.00000,0.00000,0.00000,1,0,
07.02 17:09:35:330,330,-0.09202,-0.16173,9.80804,-647408939108925440.00000,0.00000,-24685744208244365821214720.00000,0.29417,-0.06226,-0.56720,-0.98322,100.37647,0.40300,0.64022,-0.00819,-0.00434,0.76814,0.00000,0.00000,0.00000,0.00000,1,0,
07.02 17:09:35:339,331,-0.05683,-0.19824,9.81932,-647408939108925440.00000,0.00000,-24685744208244365821214720.00000,0.29119,-0.06380,-0.56574,-0.98458,100.37086,0.40310,0.64025,-0.00820,-0.00435,0.76811,0.00000,0.00000,0.00000,0.00000,1,0,
07.02 17:09:35:349,332,-0.06610,-0.20473,9.79507,-647408939108925440.00000,0.00000,-24685744208244365821214720.00000,0.29319,-0.06625,-0.56772,-0.98697,100.35936,0.40327,0.64033,-0.00822,-0.00436,0.76804,0.00000,0.00000,0.00000,0.00000,1,0,
07.02 17:09:35:358,333,-0.04945,-0.20703,9.77967,-647408939108925440.00000,0.00000,-24685744208244365821214720.00000,0.29268,-0.06477,-0.56673,-0.98790,100.38471,0.40402,0.64016,-0.00823,-0.00437,0.76818,0.00000,0.00000,0.00000,0.00000,1,0,
07.02 17:09:35:370,334,-0.06843,-0.21896,9.84180,-647408939108925440.00000,0.00000,-24685744208244365821214720.00000,0.29219,-0.06326,-0.56772,-0.98772,100.39963,0.40442,0.64006,-0.00823,-0.00436,0.76827,0.00000,0.00000,0.00000,0.00000,1,0,
07.02 17:09:35:379,335,-0.10790,-0.19194,9.79157,-647408939108925440.00000,0.00000,-24685744208244365821214720.00000,0.29218,-0.06481,-0.56474,-0.98688,100.39079,0.40412,0.64012,-0.00822,-0.00436,0.76822,0.00000,0.00000,0.00000,0.00000,1,0,
07.02 17:09:35:389,336,-0.09794,-0.19367,9.83484,-647408939108925440.00000,0.00000,-24685744208244365821214720.00000,0.29367,-0.06629,-0.56573,-0.98493,100.38655,0.40438,0.64015,-0.00821,-0.00434,0.76819,0.00000,0.00000,0.00000,0.00000,1,0,
07.02 17:09:35:399,337,-0.06348,-0.16620,9.78778,-647408939108925440.00000,0.00000,-24685744208244365821214720.00000,0.29467,-0.06325,-0.56770,-0.98379,100.40602,0.40288,0.64002,-0.00820,-0.00435,0.76830,0.00000,0.00000,0.00000,0.00000,1,0,
07.02 17:09:35:409,338,-0.06085,-0.17478,9.82425,-647408939108925440.00000,0.00000,-24685744208244365821214720.00000,0.29170,-0.06226,-0.56772,-0.98358,100.40395,0.40205,0.64003,-0.00819,-0.00435,0.76829,0.00000,0.00000,0.00000,0.00000,1,0,
07.02 17:09:35:419,339,-0.03228,-0.16874,9.74524,-647408939108925440.00000,0.00000,-24685744208244365821214720.00000,0.29169,-0.06427,-0.56723,-0.98365,100.41096,0.40140,0.63999,-0.00819,-0.00435,0.76833,0.00000,0.00000,0.00000,0.00000,1,0,
07.02 17:09:35:429,340,-0.03125,-0.17594,9.87303,-647408939108925440.00000,0.00000,-24685744208244365821214720.00000,0.29367,-0.06379,-0.56572,-0.98245,100.41306,0.40075,0.63997,-0.00817,-0.00435,0.76834,0.00000,0.00000,0.00000,0.00000,1,0,
07.02 17:09:35:437,341,-0.02854,-0.12089,9.72490,-647408939108925440.00000,0.00000,-24685744208244365821214720.00000,0.29417,-0.06476,-0.56721,-0.98325,100.41179,0.40109,0.63998,-0.00818,-0.00435,0.76834,0.00000,0.00000,0.00000,0.00000,1,0,
07.02 17:09:35:449,342,-0.09271,-0.16869,9.87385,-647408939108925440.00000,0.00000,-24685744208244365821214720.00000,0.29070,-0.06276,-0.56773,-0.98322,100.41476,0.40291,0.63996,-0.00819,-0.00434,0.76835,0.00000,0.00000,0.00000,0.00000,1,0,
07.02 17:09:35:459,343,-0.05642,-0.11811,9.75745,-647408939108925440.00000,0.00000,-24685744208244365821214720.00000,0.29169,-0.06430,-0.56574,-0.98247,100.41590,0.40264,0.63995,-0.00819,-0.00434,0.76836,0.00000,0.00000,0.00000,0.00000,1,0,
07.02 17:09:35:469,344,-0.09239,-0.15231,9.83999,-647408939108925440.00000,0.00000,-24685744208244365821214720.00000,0.29268,-0.06428,-0.56623,-0.98334,100.41393,0.40358,0.63997,-0.00820,-0.00434,0.76835,0.00000,0.00000,0.00000,0.00000,1,0,
07.02 17:09:35:480,345,-0.08309,-0.16698,9.77688,-647408939108925440.00000,0.00000,-24685744208244365821214720.00000,0.29119,-0.06478,-0.56674,-0.98398,100.41129,0.40282,0.63998,-0.00820,-0.00435,0.76833,0.00000,0.00000,0.00000,0.00000,1,0,
07.02 17:09:35:489,346,-0.06210,-0.21868,9.83083,-647408939108925440.00000,0.00000,-24685744208244365821214720.00000,0.29417,-0.06379,-0.56572,-0.98387,100.38879,0.40152,0.64013,-0.00819,-0.00435,0.76821,0.00000,0.00000,0.00000,0.00000,1,0,
07.02 17:09:35:499,347,-0.03622,-0.18906,9.79648,-647408939108925440.00000,0.00000,-24685744208244365821214720.00000,0.29170,-0.06526,-0.56773,-0.98516,100.38629,0.40143,0.64015,-0.00819,-0.00436,0.76819,0.00000,0.00000,0.00000,0.00000,1,0,
07.02 17:09:35:509,348,-0.05928,-0.17442,9.79827,-647408939108925440.00000,0.00000,-24685744208244365821214720.00000,0.29516,-0.06680,-0.56472,-0.98533,100.40417,0.40170,0.64003,-0.00820,-0.00436,0.76829,0.00000,0.00000,0.00000,0.00000,1,0,
07.02 17:09:35:519,349,-0.05893,-0.17325,9.80058,-647408939108925440.00000,0.00000,-24685744208244365821214720.00000,0.29368,-0.06424,-0.56821,-0.98620,100.41456,0.40157,0.63996,-0.00820,-0.00437,0.76835,0.00000,0.00000,0.00000,0.00000,1,0,
07.02 17:09:35:529,350,-0.07681,-0.16510,9.79850,-647408939108925440.00000,0.00000,-24685744208244365821214720.00000,0.29218,-0.06131,-0.56523,-0.98638,100.41566,0.40215,0.63995,-0.00821,-0.00437,0.76836,0.00000,0.00000,0.00000,0.00000,1,0,
07.02 17:09:35:539,351,-0.10204,-0.18869,9.82633,-647408939108925440.00000,0.00000,-24685744208244365821214720.00000,0.29318,-0.06425,-0.56772,-0.98522,100.41772,0.40342,0.63994,-0.00821,-0.00435,0.76837,0.00000,0.00000,0.00000,0.00000,1,0,
07.02 17:09:35:549,352,-0.07322,-0.16084,9.79212,-647408939108925440.00000,0.00000,-24685744208244365821214720.00000,0.29267,-0.06234,-0.56373,-0.98555,100.41822,0.40294,0.63994,-0.00821,-0.00436,0.76837,0.00000,0.00000,0.00000,0.00000,1,0,
07.02 17:09:35:559,353,-0.05799,-0.15929,9.81333,-647408939108925440.00000,0.00000,-24685744208244365821214720.00000,0.29267,-0.06631,-0.56474,-0.98620,100.42442,0.40295,0.63990,-0.00821,-0.00436,0.76841,0.00000,0.00000,0.00000,0.00000,1,0,
07.02 17:09:35:569,354,-0.05466,-0.15841,9.79326,-647408939108925440.00000,0.00000,-24685744208244365821214720.00000,0.29419,-0.06370,-0.57019,-0.98670,100.45676,0.40180,0.63968,-0.00820,-0.00437,0.76859,0.00000,0.00000,0.00000,0.00000,1,0,
07.02 17:09:35:578,355,-0.04525,-0.16440,9.83203,-647408939108925440.00000,0.00000,-24685744208244365821214720.00000,0.29269,-0.06676,-0.56723,-0.98500,100.44260,0.40085,0.63977,-0.00819,-0.00437,0.76851,0.00000,0.00000,0.00000,0.00000,1,0,
07.02 17:09:35:588,356,-0.02596,-0.13995,9.76901,-647408939108925440.00000,0.00000,-24685744208244365821214720.00000,0.29119,-0.06381,-0.56524,-0.98394,100.44259,0.40204,0.63977,-0.00819,-0.00435,0.76851,0.00000,0.00000,0.00000,0.00000,1,0,
07.02 17:09:35:599,357,-0.07599,-0.14493,9.83069,-647408939108925440.00000,0.00000,-24685744208244365821214720.00000,0.29268,-0.06128,-0.56671,-0.98248,100.44713,0.40408,0.63974,-0.00820,-0.00433,0.76853,0.00000,0.00000,0.00000,0.00000,1,0,
07.02 17:09:35:610,358,-0.06557,-0.14508,9.79502,-647408939108925440.00000,0.00000,-24685744208244365821214720.00000,0.29318,-0.06278,-0.56622,-0.98162,100.45584,0.40413,0.63968,-0.00819,-0.00433,0.76858,0.00000,0.00000,0.00000,0.00000,1,0,
07.02 17:09:35:619,359,-0.07567,-0.18843,9.80700,-647408939108925440.00000,0.00000,-24685744208244365821214720.00000,0.29367,-0.06279,-0.56572,-0.98080,100.45293,0.40479,0.63970,-0.00819,-0.00432,0.76857,0.00000,0.00000,0.00000,0.00000,1,0,
07.02 17:09:35:629,360,-0.06418,-0.17931,9.80079,-647408939108925440.00000,0.00000,-24685744208244365821214720.00000,0.29417,-0.06429,-0.56572,-0.98117,100.45108,0.40292,0.63972,-0.00818,-0.00433,0.76856,0.00000,0.00000,0.00000,0.00000,1,0,
07.02 17:09:35:640,361,-0.04149,-0.17757,9.82652,-647408939108925440.00000,0.00000,-24685744208244365821214720.00000,0.29268,-0.06427,-0.56672,-0.97941,100.44742,0.40207,0.63974,-0.00816,-0.00432,0.76853,0.00000,0.00000,0.00000,0.00000,1,0,
07.02 17:09:35:649,362,-0.05831,-0.17807,9.78077,-647408939108925440.00000,0.00000,-24685744208244365821214720.00000,0.29319,-0.06574,-0.56822,-0.97875,100.45984,0.40307,0.63966,-0.00817,-0.00431,0.76860,0.00000,0.00000,0.00000,0.00000,1,0,
07.02 17:09:35:660,363,-0.10260,-0.17065,9.82845,-647408939108925440.00000,0.00000,-24685744208244365821214720.00000,0.29020,-0.06328,-0.56674,-0.97878,100.45548,0.40431,0.63969,-0.00818,-0.00431,0.76858,0.00000,0.00000,0.00000,0.00000,1,0,
07.02 17:09:35:669,364,-0.03227,-0.15979,9.80855,-647408939108925440.00000,0.00000,-24685744208244365821214720.00000,0.29318,-0.06376,-0.56722,-0.97917,100.46782,0.40181,0.63960,-0.00816,-0.00433,0.76865,0.00000,0.00000,0.00000,0.00000,1,0,
07.02 17:09:35:683,365,-0.01473,-0.15048,9.75504,-647408939108925440.00000,0.00000,-24685744208244365821214720.00000,0.29120,-0.06626,-0.56774,-0.97965,100.46873,0.40242,0.63960,-0.00817,-0.00433,0.76865,0.00000,0.00000,0.00000,0.00000,1,0,
07.02 17:09:35:692,366,-0.06586,-0.17165,9.84407,-647408939108925440.00000,0.00000,-24685744208244365821214720.00000,0.29269,-0.06276,-0.56771,-0.97833,100.46555,0.40361,0.63962,-0.00817,-0.00431,0.76864,0.00000,0.00000,0.00000,0.00000,1,0,
07.02 17:09:35:700,367,-0.06093,-0.18107,9.78306,-647408939108925440.00000,0.00000,-24685744208244365821214720.00000,0.29367,-0.06328,-0.56622,-0.97639,100.44765,0.40293,0.63974,-0.00815,-0.00430,0.76854,0.00000,0.00000,0.00000,0.00000,1,0,
07.02 17:09:35:711,368,-0.09307,-0.16198,9.83789,-647408939108925440.00000,0.00000,-24685744208244365821214720.00000,0.29020,-0.06328,-0.56674,-0.97555,100.45182,0.40348,0.63971,-0.00815,-0.00429,0.76856,0.00000,0.00000,0.00000,0.00000,1,0,
07.02 17:09:35:720,369,-0.09410,-0.15007,9.74934,-647408939108925440.00000,0.00000,-24685744208244365821214720.00000,0.29417,-0.06328,-0.56621,-0.97593,100.43175,0.40475,0.63985,-0.00816,-0.00428,0.76845,0.00000,0.00000,0.00000,0.00000,1,0,
07.02 17:09:35:729,370,-0.07889,-0.18383,9.86355,-647408939108925440.00000,0.00000,-24685744208244365821214720.00000,0.29268,-0.06577,-0.56673,-0.97483,100.42956,0.40353,0.63986,-0.00815,-0.00428,0.76844,0.00000,0.00000,0.00000,0.00000,1,0,
07.02 17:09:35:741,371,-0.03266,-0.16792,9.74169,-647408939108925440.00000,0.00000,-24685744208244365821214720.00000,0.29219,-0.06525,-0.56773,-0.97630,100.43573,0.40398,0.63982,-0.00816,-0.00429,0.76847,0.00000,0.00000,0.00000,0.00000,1,0,
07.02 17:09:35:749,372,-0.07866,-0.18886,9.83925,-647408939108925440.00000,0.00000,-24685744208244365821214720.00000,0.29367,-0.06780,-0.56524,-0.97594,100.43669,0.40557,0.63981,-0.00817,-0.00428,0.76847,0.00000,0.00000,0.00000,0.00000,1,0,
07.02 17:09:35:760,373,-0.05647,-0.15140,9.76239,-647408939108925440.00000,0.00000,-24685744208244365821214720.00000,0.29168,-0.06381,-0.56524,-0.97494,100.44547,0.40520,0.63975,-0.00816,-0.00428,0.76852,0.00000,0.00000,0.00000,0.00000,1,0,
07.02 17:09:35:769,374,-0.07501,-0.17404,9.83253,-647408939108925440.00000,0.00000,-24685744208244365821214720.00000,0.29268,-0.06281,-0.56523,-0.97429,100.44725,0.40757,0.63974,-0.00817,-0.00426,0.76853,0.00000,0.00000,0.00000,0.00000,1,0,
07.02 17:09:35:779,375,-0.07755,-0.17086,9.78742,-647408939108925440.00000,0.00000,-24685744208244365821214720.00000,0.29318,-0.06227,-0.56671,-0.97437,100.45317,0.40899,0.63970,-0.00818,-0.00425,0.76857,0.00000,0.00000,0.00000,0.00000,1,0,
07.02 17:09:35:790,376,-0.07570,-0.16956,9.79552,-647408939108925440.00000,0.00000,-24685744208244365821214720.00000,0.29318,-0.06428,-0.56622,-0.97460,100.46118,0.40847,0.63965,-0.00818,-0.00426,0.76861,0.00000,0.00000,0.00000,0.00000,1,0,
07.02 17:09:35:800,377,-0.06202,-0.16601,9.83553,-647408939108925440.00000,0.00000,-24685744208244365821214720.00000,0.29367,-0.06530,-0.56523,-0.97400,100.46060,0.40779,0.63965,-0.00817,-0.00426,0.76861,0.00000,0.00000,0.00000,0.00000,1,0,
07.02 17:09:35:810,378,-0.07474,-0.15391,9.75888,-647408939108925440.00000,0.00000,-24685744208244365821214720.00000,0.29268,-0.06378,-0.56623,-0.97464,100.45953,0.40902,0.63966,-0.00818,-0.00425,0.76860,0.00000,0.00000,0.00000,0.00000,1,0,
07.02 17:09:35:819,379,-0.07548,-0.15886,9.83083,-647408939108925440.00000,0.00000,-24685744208244365821214720.00000,0.29269,-0.06476,-0.56722,-0.97468,100.45770,0.40844,0.63967,-0.00818,-0.00426,0.76859,0.00000,0.00000,0.00000,0.00000,1,0,
07.02 17:09:35:829,380,-0.05119,-0.13528,9.77953,-647408939108925440.00000,0.00000,-24685744208244365821214720.00000,0.29318,-0.06527,-0.56672,-0.97514,100.46261,0.40710,0.63964,-0.00817,-0.00427,0.76862,0.00000,0.00000,0.00000,0.00000,1,0,
07.02 17:09:35:840,381,-0.04841,-0.17078,9.80266,-647408939108925440.00000,0.00000,-24685744208244365821214720.00000,0.29268,-0.06228,-0.56672,-0.97431,100.46935,0.40745,0.63959,-0.00817,-0.00426,0.76866,0.00000,0.00000,0.00000,0.00000,1,0,
07.02 17:09:35:850,382,-0.06999,-0.16055,9.80458,-647408939108925440.00000,0.00000,-24685744208244365821214720.00000,0.29368,-0.06227,-0.56671,-0.97427,100.45052,0.40794,0.63972,-0.00818,-0.00426,0.76855,0.00000,0.00000,0.00000,0.00000,1,0,
07.02 17:09:35:859,383,-0.04243,-0.18928,9.82352,-647408939108925440.00000,0.00000,-24685744208244365821214720.00000,0.29367,-0.06280,-0.56522,-0.97462,100.46733,0.40798,0.63961,-0.00818,-0.00426,0.76865,0.00000,0.00000,0.00000,0.00000,1,0,
07.02 17:09:35:869,384,-0.05957,-0.16990,9.77524,-647408939108925440.00000,0.00000,-24685744208244365821214720.00000,0.29418,-0.06423,-0.56870,-0.97527,100.47029,0.40917,0.63959,-0.00819,-0.00426,0.76866,0.00000,0.00000,0.00000,0.00000,1,0,
07.02 17:09:35:879,385,-0.08205,-0.18753,9.83291,-647408939108925440.00000,0.00000,-24685744208244365821214720.00000,0.29516,-0.06478,-0.56621,-0.97514,100.47267,0.40953,0.63957,-0.00819,-0.00426,0.76868,0.00000,0.00000,0.00000,0.00000,1,0,
07.02 17:09:35:889,386,-0.06195,-0.15134,9.80232,-647408939108925440.00000,0.00000,-24685744208244365821214720.00000,0.29169,-0.06577,-0.56674,-0.97654,100.47217,0.40869,0.63958,-0.00819,-0.00427,0.76867,0.00000,0.00000,0.00000,0.00000,1,0,
07.02 17:09:35:900,387,-0.10518,-0.16892,9.82764,-647408939108925440.00000,0.00000,-24685744208244365821214720.00000,0.29467,-0.06426,-0.56721,-0.97515,100.47939,0.40895,0.63953,-0.00819,-0.00426,0.76871,0.00000,0.00000,0.00000,0.00000,1,0,
07.02 17:09:35:909,388,-0.07492,-0.17630,9.78198,-647408939108925440.00000,0.00000,-24685744208244365821214720.00000,0.29268,-0.06480,-0.56523,-0.97556,100.46629,0.40863,0.63961,-0.00819,-0.00426,0.76864,0.00000,0.00000,0.00000,0.00000,1,0,
07.02 17:09:35:920,389,-0.05318,-0.17290,9.83599,-647408939108925440.00000,0.00000,-24685744208244365821214720.00000,0.29268,-0.06229,-0.56622,-0.97492,100.47083,0.40726,0.63958,-0.00817,-0.00427,0.76867,0.00000,0.00000,0.00000,0.00000,1,0,
07.02 17:09:35:930,390,-0.05042,-0.17900,9.76882,-647408939108925440.00000,0.00000,-24685744208244365821214720.00000,0.29219,-0.06677,-0.56674,-0.97610,100.46274,0.40707,0.63964,-0.00818,-0.00427,0.76862,0.00000,0.00000,0.00000,0.00000,1,0,
07.02 17:09:35:938,391,-0.10096,-0.15515,9.83112,-647408939108925440.00000,0.00000,-24685744208244365821214720.00000,0.29217,-0.06233,-0.56423,-0.97601,100.48293,0.40877,0.63950,-0.00819,-0.00427,0.76873,0.00000,0.00000,0.00000,0.00000,1,0,
07.02 17:09:35:950,392,-0.09235,-0.14835,9.81798,-647408939108925440.00000,0.00000,-24685744208244365821214720.00000,0.29368,-0.06427,-0.56672,-0.97509,100.50037,0.40825,0.63939,-0.00818,-0.00426,0.76883,0.00000,0.00000,0.00000,0.00000,1,0,
07.02 17:09:35:960,393,-0.07428,-0.15429,9.79846,-647408939108925440.00000,0.00000,-24685744208244365821214720.00000,0.29368,-0.06476,-0.56722,-0.97400,100.50114,0.40823,0.63938,-0.00817,-0.00426,0.76883,0.00000,0.00000,0.00000,0.00000,1,0,
07.02 17:09:35:970,394,-0.06919,-0.16552,9.81333,-647408939108925440.00000,0.00000,-24685744208244365821214720.00000,0.29369,-0.06272,-0.56920,-0.97440,100.50053,0.41038,0.63938,-0.00819,-0.00425,0.76883,0.00000,0.00000,0.00000,0.00000,1,0,
07.02 17:09:35:980,395,-0.03681,-0.16573,9.80890,-647408939108925440.00000,0.00000,-24685744208244365821214720.00000,0.29121,-0.06474,-0.56873,-0.97392,100.50191,0.40820,0.63938,-0.00817,-0.00426,0.76884,0.00000,0.00000,0.00000,0.00000,1,0,
07.02 17:09:35:989,396,-0.02632,-0.16133,9.84683,-647408939108925440.00000,0.00000,-24685744208244365821214720.00000,0.29169,-0.06377,-0.56723,-0.97357,100.50620,0.40792,0.63935,-0.00817,-0.00426,0.76886,0.00000,0.00000,0.00000,0.00000,1,0,
07.02 17:09:35:999,397,-0.07030,-0.19126,9.73852,-647408939108925440.00000,0.00000,-24685744208244365821214720.00000,0.29169,-0.06327,-0.56723,-0.97456,100.50712,0.40784,0.63934,-0.00817,-0.00426,0.76887,0.00000,0.00000,0.00000,0.00000,1,0,
07.02 17:09:36:009,398,-0.08725,-0.17305,9.86042,-647408939108925440.00000,0.00000,-24685744208244365821214720.00000,0.29468,-0.06374,-0.56820,-0.97431,100.50614,0.40923,0.63935,-0.00818,-0.00425,0.76886,0.00000,0.00000,0.00000,0.00000,1,0,
07.02 17:09:36:019,399,-0.02709,-0.16031,9.79357,-647408939108925440.00000,0.00000,-24685744208244365821214720.00000,0.29417,-0.06228,-0.56621,-0.97364,100.50312,0.40759,0.63937,-0.00817,-0.00426,0.76885,0.00000,0.00000,0.00000,0.00000,1,0,
07.02 17:09:36:029,400,-0.07451,-0.14874,9.76786,-647408939108925440.00000,0.00000,-24685744208244365821214720.00000,0.29367,-0.06479,-0.56572,-0.97557,100.49981,0.41070,0.63939,-0.00820,-0.00425,0.76883,0.00000,0.00000,0.00000,0.00000,1,0,
07.02 17:09:36:043,401,-0.08381,-0.18820,9.85225,-647408939108925440.00000,0.00000,-24685744208244365821214720.00000,0.29019,-0.06583,-0.56426,-0.97439,100.49030,0.38766,0.63946,-0.00804,-0.00437,0.76877,0.00000,0.00000,0.00000,0.00000,1,0,
07.02 17:09:36:048,402,-0.02916,-0.15211,9.79119,-647408939108925440.00000,0.00000,-24685744208244365821214720.00000,0.29219,-0.06277,-0.56722,-0.97302,100.47195,0.38567,0.63958,-0.00802,-0.00437,0.76867,0.00000,0.00000,0.00000,0.00000,1,0,
07.02 17:09:36:058,403,-0.08879,-0.19993,9.82492,-647408939108925440.00000,0.00000,-24685744208244365821214720.00000,0.29169,-0.06729,-0.56575,-0.97459,100.47507,0.38765,0.63956,-0.00804,-0.00437,0.76869,0.00000,0.00000,0.00000,0.00000,1,0,
07.02 17:09:36:070,404,-0.05679,-0.15666,9.75526,-647408939108925440.00000,0.00000,-24685744208244365821214720.00000,0.29219,-0.06477,-0.56673,-0.97449,100.46932,0.38798,0.63960,-0.00804,-0.00437,0.76866,0.00000,0.00000,0.00000,0.00000,1,0,
07.02 17:09:36:079,405,-0.04753,-0.18554,9.87241,-647408939108925440.00000,0.00000,-24685744208244365821214720.00000,0.29316,-0.06435,-0.56274,-0.97480,100.47421,0.38705,0.63956,-0.00804,-0.00438,0.76868,0.00000,0.00000,0.00000,0.00000,1,0,
07.02 17:09:36:090,406,-0.07935,-0.16296,9.77764,-647408939108925440.00000,0.00000,-24685744208244365821214720.00000,0.29268,-0.06428,-0.56623,-0.97626,100.48412,0.38803,0.63950,-0.00805,-0.00438,0.76874,0.00000,0.00000,0.00000,0.00000,1,0,
07.02 17:09:36:099,407,-0.10489,-0.19133,9.82976,-647408939108925440.00000,0.00000,-24685744208244365821214720.00000,0.29267,-0.06282,-0.56473,-0.97586,100.48846,0.38932,0.63947,-0.00806,-0.00437,0.76876,0.00000,0.00000,0.00000,0.00000,1,0,
07.02 17:09:36:109,408,-0.06917,-0.14514,9.82516,-647408939108925440.00000,0.00000,-24685744208244365821214720.00000,0.29268,-0.06479,-0.56573,-0.97505,100.47688,0.38750,0.63955,-0.00804,-0.00438,0.76870,0.00000,0.00000,0.00000,0.00000,1,0,
07.02 17:09:36:120,409,-0.05691,-0.14838,9.79169,-647408939108925440.00000,0.00000,-24685744208244365821214720.00000,0.29369,-0.06522,-0.56921,-0.97570,100.48586,0.38704,0.63948,-0.00804,-0.00439,0.76875,0.00000,0.00000,0.00000,0.00000,1,0,
07.02 17:09:36:129,410,-0.05748,-0.17217,9.79169,-647408939108925440.00000,0.00000,-24685744208244365821214720.00000,0.29317,-0.06531,-0.56473,-0.97666,100.49541,0.38626,0.63942,-0.00804,-0.00440,0.76880,0.00000,0.00000,0.00000,0.00000,1,0,
07.02 17:09:36:139,411,-0.04394,-0.18001,9.80790,-647408939108925440.00000,0.00000,-24685744208244365821214720.00000,0.29219,-0.06375,-0.56822,-0.97599,100.51361,0.38601,0.63930,-0.00804,-0.00440,0.76890,0.00000,0.00000,0.00000,0.00000,1,0,
07.02 17:09:36:149,412,-0.04536,-0.16378,9.82306,-647408939108925440.00000,0.00000,-24685744208244365821214720.00000,0.29317,-0.06430,-0.56523,-0.97584,100.50537,0.38570,0.63935,-0.00803,-0.00440,0.76886,0.00000,0.00000,0.00000,0.00000,1,0,
07.02 17:09:36:159,413,-0.08597,-0.17920,9.76091,-647408939108925440.00000,0.00000,-24685744208244365821214720.00000,0.29169,-0.06378,-0.56673,-0.97719,100.50848,0.38800,0.63933,-0.00806,-0.00439,0.76888,0.00000,0.00000,0.00000,0.00000,1,0,
07.02 17:09:36:169,414,-0.06277,-0.17062,9.81236,-647408939108925440.00000,0.00000,-24685744208244365821214720.00000,0.28971,-0.06428,-0.56675,-0.97568,100.51442,0.38759,0.63929,-0.00804,-0.00438,0.76891,0.00000,0.00000,0.00000,0.00000,1,0,
07.02 17:09:36:179,415,-0.02847,-0.14160,9.80098,-647408939108925440.00000,0.00000,-24685744208244365821214720.00000,0.29268,-0.06479,-0.56573,-0.97759,100.55009,0.38881,0.63905,-0.00806,-0.00439,0.76911,0.00000,0.00000,0.00000,0.00000,1,0,
07.02 17:09:36:190,416,-0.05928,-0.17175,9.80580,-647408939108925440.00000,0.00000,-24685744208244365821214720.00000,0.29219,-0.06424,-0.56822,-0.97834,100.54892,0.39043,0.63906,-0.00808,-0.00439,0.76910,0.00000,0.00000,0.00000,0.00000,1,0,
07.02 17:09:36:199,417,-0.05221,-0.16289,9.82247,-647408939108925440.00000,0.00000,-24685744208244365821214720.00000,0.29318,-0.06378,-0.56622,-0.97681,100.54545,0.39072,0.63908,-0.00807,-0.00438,0.76908,0.00000,0.00000,0.00000,0.00000,1,0,
07.02 17:09:36:208,418,-0.06850,-0.14059,9.80492,-647408939108925440.00000,0.00000,-24685744208244365821214720.00000,0.29269,-0.06575,-0.56773,-0.97476,100.54120,0.39164,0.63911,-0.00807,-0.00436,0.76906,0.00000,0.00000,0.00000,0.00000,1,0,
07.02 17:09:36:219,419,-0.09344,-0.15216,9.81970,-647408939108925440.00000,0.00000,-24685744208244365821214720.00000,0.29368,-0.06474,-0.56821,-0.97450,100.56404,0.39259,0.63896,-0.00807,-0.00435,0.76919,0.00000,0.00000,0.00000,0.00000,1,0,
07.02 17:09:36:229,420,-0.07607,-0.17747,9.78332,-647408939108925440.00000,0.00000,-24685744208244365821214720.00000,0.29317,-0.06530,-0.56523,-0.97534,100.56456,0.39323,0.63896,-0.00808,-0.00435,0.76919,0.00000,0.00000,0.00000,0.00000,1,0,
07.02 17:09:36:239,421,-0.04754,-0.17690,9.85618,-647408939108925440.00000,0.00000,-24685744208244365821214720.00000,0.29218,-0.06132,-0.56473,-0.97548,100.57503,0.39345,0.63889,-0.00808,-0.00435,0.76925,0.00000,0.00000,0.00000,0.00000,1,0,
07.02 17:09:36:249,422,-0.05659,-0.15718,9.80337,-647408939108925440.00000,0.00000,-24685744208244365821214720.00000,0.29367,-0.06430,-0.56522,-0.97359,100.59601,0.39467,0.63875,-0.00808,-0.00434,0.76936,0.00000,0.00000,0.00000,0.00000,1,0,
07.02 17:09:36:260,423,-0.09253,-0.17382,9.81181,-647408939108925440.00000,0.00000,-24685744208244365821214720.00000,0.29318,-0.06477,-0.56672,-0.97252,100.60576,0.39500,0.63868,-0.00807,-0.00433,0.76942,0.00000,0.00000,0.00000,0.00000,1,0,
07.02 17:09:36:269,424,-0.10283,-0.15015,9.81341,-647408939108925440.00000,0.00000,-24685744208244365821214720.00000,0.29218,-0.06528,-0.56623,-0.97276,100.60723,0.39331,0.63867,-0.00806,-0.00434,0.76943,0.00000,0.00000,0.00000,0.00000,1,0,
07.02 17:09:36:278,425,-0.08398,-0.18270,9.82650,-647408939108925440.00000,0.00000,-24685744208244365821214720.00000,0.29268,-0.06628,-0.56623,-0.97334,100.61017,0.39242,0.63865,-0.00806,-0.00435,0.76944,0.00000,0.00000,0.00000,0.00000,1,0,
07.02 17:09:36:289,426,-0.08618,-0.20475,9.81007,-647408939108925440.00000,0.00000,-24685744208244365821214720.00000,0.29319,-0.06474,-0.56822,-0.97431,100.61739,0.39148,0.63860,-0.00806,-0.00436,0.76948,0.00000,0.00000,0.00000,0.00000,1,0,
07.02 17:09:36:299,427,-0.02303,-0.18195,9.79085,-647408939108925440.00000,0.00000,-24685744208244365821214720.00000,0.29317,-0.06381,-0.56473,-0.97408,100.61790,0.38991,0.63860,-0.00805,-0.00437,0.76949,0.00000,0.00000,0.00000,0.00000,1,0,
07.02 17:09:36:309,428,-0.02353,-0.17081,9.79603,-647408939108925440.00000,0.00000,-24685744208244365821214720.00000,0.29268,-0.06430,-0.56523,-0.97413,100.62260,0.38967,0.63857,-0.00805,-0.00437,0.76951,0.00000,0.00000,0.00000,0.00000,1,0,
07.02 17:09:36:320,429,-0.02305,-0.16356,9.79786,-647408939108925440.00000,0.00000,-24685744208244365821214720.00000,0.29120,-0.06327,-0.56723,-0.97412,100.62438,0.39090,0.63855,-0.00805,-0.00436,0.76952,0.00000,0.00000,0.00000,0.00000,1,0,
07.02 17:09:36:329,430,-0.07653,-0.18676,9.81190,-647408939108925440.00000,0.00000,-24685744208244365821214720.00000,0.29367,-0.06381,-0.56472,-0.97465,100.61612,0.39092,0.63861,-0.00806,-0.00437,0.76948,0.00000,0.00000,0.00000,0.00000,1,0,
07.02 17:09:36:339,431,-0.06303,-0.14230,9.81417,-647408939108925440.00000,0.00000,-24685744208244365821214720.00000,0.28971,-0.06275,-0.56824,-0.97569,100.60629,0.39117,0.63868,-0.00806,-0.00437,0.76942,0.00000,0.00000,0.00000,0.00000,1,0,
07.02 17:09:36:349,432,-0.04049,-0.14441,9.80649,-647408939108925440.00000,0.00000,-24685744208244365821214720.00000,0.29268,-0.06580,-0.56524,-0.97443,100.58530,0.39031,0.63882,-0.00805,-0.00437,0.76930,0.00000,0.00000,0.00000,0.00000,1,0,
07.02 17:09:36:358,433,-0.04579,-0.15602,9.80053,-647408939108925440.00000,0.00000,-24685744208244365821214720.00000,0.29168,-0.06431,-0.56524,-0.97485,100.57296,0.38981,0.63890,-0.00805,-0.00437,0.76924,0.00000,0.00000,0.00000,0.00000,1,0,
07.02 17:09:36:369,434,-0.08229,-0.16640,9.80489,-647408939108925440.00000,0.00000,-24685744208244365821214720.00000,0.29218,-0.06229,-0.56622,-0.97598,100.57584,0.38968,0.63888,-0.00806,-0.00438,0.76925,0.00000,0.00000,0.00000,0.00000,1,0,
07.02 17:09:36:380,435,-0.08292,-0.18037,9.81677,-647408939108925440.00000,0.00000,-24685744208244365821214720.00000,0.29217,-0.06632,-0.56425,-0.97542,100.57033,0.39081,0.63892,-0.00806,-0.00437,0.76922,0.00000,0.00000,0.00000,0.00000,1,0,
07.02 17:09:36:390,436,-0.09520,-0.15772,9.83658,-647408939108925440.00000,0.00000,-24685744208244365821214720.00000,0.29167,-0.06435,-0.56325,-0.97427,100.57533,0.39170,0.63888,-0.00806,-0.00436,0.76925,0.00000,0.00000,0.00000,0.00000,1,0,
07.02 17:09:36:401,437,-0.08809,-0.14565,9.80521,-647408939108925440.00000,0.00000,-24685744208244365821214720.00000,0.29069,-0.06531,-0.56525,-0.97222,100.57479,0.39185,0.63889,-0.00805,-0.00434,0.76925,0.00000,0.00000,0.00000,0.00000,1,0,
07.02 17:09:36:414,438,-0.08335,-0.15876,9.79402,-647408939108925440.00000,0.00000,-24685744208244365821214720.00000,0.29218,-0.06580,-0.56524,-0.97271,100.58561,0.39105,0.63882,-0.00805,-0.00435,0.76931,0.00000,0.00000,0.00000,0.00000,1,0,
07.02 17:09:36:421,439,-0.05352,-0.19319,9.82437,-647408939108925440.00000,0.00000,-24685744208244365821214720.00000,0.29268,-0.06377,-0.56672,-0.97313,100.58504,0.39048,0.63882,-0.00805,-0.00436,0.76930,0.00000,0.00000,0.00000,0.00000,1,0,
07.02 17:09:36:430,440,-0.05981,-0.18153,9.80580,-647408939108925440.00000,0.00000,-24685744208244365821214720.00000,0.29417,-0.06377,-0.56671,-0.97291,100.58131,0.39027,0.63884,-0.00804,-0.00436,0.76928,0.00000,0.00000,0.00000,0.00000,1,0,
07.02 17:09:36:440,441,-0.06440,-0.15941,9.81281,-647408939108925440.00000,0.00000,-24685744208244365821214720.00000,0.29119,-0.06629,-0.56625,-0.97298,100.58326,0.39224,0.63883,-0.00806,-0.00435,0.76929,0.00000,0.00000,0.00000,0.00000,1,0,
07.02 17:09:36:449,442,-0.04760,-0.15478,9.80182,-647408939108925440.00000,0.00000,-24685744208244365821214720.00000,0.29220,-0.06624,-0.56823,-0.97299,100.57249,0.39153,0.63890,-0.00805,-0.00435,0.76923,0.00000,0.00000,0.00000,0.00000,1,0,
07.02 17:09:36:459,443,-0.06811,-0.15040,9.79262,-647408939108925440.00000,0.00000,-24685744208244365821214720.00000,0.29268,-0.06430,-0.56523,-0.97249,100.58022,0.39109,0.63885,-0.00805,-0.00435,0.76928,0.00000,0.00000,0.00000,0.00000,1,0,
07.02 17:09:36:469,444,-0.04310,-0.17896,9.81815,-647408939108925440.00000,0.00000,-24685744208244365821214720.00000,0.29268,-0.06329,-0.56573,-0.97192,100.58146,0.39210,0.63884,-0.00805,-0.00434,0.76928,0.00000,0.00000,0.00000,0.00000,1,0,
07.02 17:09:36:482,445,-0.06681,-0.16171,9.81000,-647408939108925440.00000,0.00000,-24685744208244365821214720.00000,0.29368,-0.06577,-0.56672,-0.97233,100.57309,0.39208,0.63890,-0.00805,-0.00434,0.76924,0.00000,0.00000,0.00000,0.00000,1,0,
07.02 17:09:36:489,446,-0.07794,-0.16875,9.80959,-647408939108925440.00000,0.00000,-24685744208244365821214720.00000,0.29218,-0.06331,-0.56523,-0.97346,100.56159,0.39270,0.63898,-0.00806,-0.00434,0.76917,0.00000,0.00000,0.00000,0.00000,1,0,
07.02 17:09:36:499,447,-0.06751,-0.19070,9.79777,-647408939108925440.00000,0.00000,-24685744208244365821214720.00000,0.29268,-0.06578,-0.56623,-0.97336,100.55564,0.39291,0.63902,-0.00807,-0.00434,0.76914,0.00000,0.00000,0.00000,0.00000,1,0,
07.02 17:09:36:509,448,-0.06858,-0.17996,9.80358,-647408939108925440.00000,0.00000,-24685744208244365821214720.00000,0.29317,-0.06530,-0.56523,-0.97327,100.56483,0.39165,0.63895,-0.00806,-0.00435,0.76919,0.00000,0.00000,0.00000,0.00000,1,0,
07.02 17:09:36:518,449,-0.05000,-0.15758,9.80251,-647408939108925440.00000,0.00000,-24685744208244365821214720.00000,0.29119,-0.06328,-0.56673,-0.97434,100.57043,0.39138,0.63892,-0.00806,-0.00436,0.76922,0.00000,0.00000,0.00000,0.00000,1,0,
07.02 17:09:36:530,450,-0.06313,-0.16422,9.80964,-647408939108925440.00000,0.00000,-24685744208244365821214720.00000,0.29466,-0.06280,-0.56521,-0.97404,100.56828,0.39254,0.63893,-0.00807,-0.00435,0.76921,0.00000,0.00000,0.00000,0.00000,1,0,
07.02 17:09:36:539,451,-0.08388,-0.16564,9.80022,-647408939108925440.00000,0.00000,-24685744208244365821214720.00000,0.29169,-0.06480,-0.56574,-0.97394,100.56989,0.39249,0.63892,-0.00807,-0.00435,0.76922,0.00000,0.00000,0.00000,0.00000,1,0,
07.02 17:09:36:549,452,-0.08239,-0.16102,9.80060,-647408939108925440.00000,0.00000,-24685744208244365821214720.00000,0.29318,-0.06177,-0.56671,-0.97373,100.57516,0.39280,0.63889,-0.00807,-0.00435,0.76925,0.00000,0.00000,0.00000,0.00000,1,0,
07.02 17:09:36:560,453,-0.08045,-0.17448,9.78449,-647408939108925440.00000,0.00000,-24685744208244365821214720.00000,0.29367,-0.06328,-0.56622,-0.97414,100.60020,0.39355,0.63872,-0.00807,-0.00435,0.76939,0.00000,0.00000,0.00000,0.00000,1,0,
07.02 17:09:36:569,454,-0.08454,-0.15408,9.86052,-647408939108925440.00000,0.00000,-24685744208244365821214720.00000,0.29416,-0.06331,-0.56472,-0.97496,100.61855,0.39362,0.63859,-0.00808,-0.00435,0.76949,0.00000,0.00000,0.00000,0.00000,1,0,
07.02 17:09:36:579,455,-0.07798,-0.14733,9.75726,-647408939108925440.00000,0.00000,-24685744208244365821214720.00000,0.29268,-0.06530,-0.56524,-0.97546,100.62547,0.39400,0.63855,-0.00808,-0.00435,0.76953,0.00000,0.00000,0.00000,0.00000,1,0,
07.02 17:09:36:590,456,-0.08311,-0.13852,9.83377,-647408939108925440.00000,0.00000,-24685744208244365821214720.00000,0.29219,-0.06326,-0.56772,-0.97568,100.62119,0.39413,0.63858,-0.00808,-0.00436,0.76950,0.00000,0.00000,0.00000,0.00000,1,0,
07.02 17:09:36:598,457,-0.06898,-0.17072,9.76939,-647408939108925440.00000,0.00000,-24685744208244365821214720.00000,0.29269,-0.06526,-0.56723,-0.97618,100.62363,0.39333,0.63856,-0.00808,-0.00436,0.76952,0.00000,0.00000,0.00000,0.00000,1,0,
07.02 17:09:36:609,458,-0.04374,-0.17047,9.84941,-647408939108925440.00000,0.00000,-24685744208244365821214720.00000,0.29269,-0.06574,-0.56822,-0.97555,100.61798,0.39294,0.63860,-0.00808,-0.00436,0.76949,0.00000,0.00000,0.00000,0.00000,1,0,
07.02 17:09:36:619,459,-0.05164,-0.16192,9.73983,-647408939108925440.00000,0.00000,-24685744208244365821214720.00000,0.29269,-0.06374,-0.56822,-0.97408,100.62000,0.39212,0.63858,-0.00806,-0.00436,0.76950,0.00000,0.00000,0.00000,0.00000,1,0,
07.02 17:09:36:629,460,-0.07622,-0.18615,9.88915,-647408939108925440.00000,0.00000,-24685744208244365821214720.00000,0.29564,-0.06333,-0.56371,-0.97264,100.61749,0.39317,0.63860,-0.00806,-0.00434,0.76948,0.00000,0.00000,0.00000,0.00000,1,0,
07.02 17:09:36:639,461,-0.05774,-0.14374,9.72727,-647408939108925440.00000,0.00000,-24685744208244365821214720.00000,0.29268,-0.06477,-0.56673,-0.97284,100.61347,0.39247,0.63863,-0.00806,-0.00435,0.76946,0.00000,0.00000,0.00000,0.00000,1,0,
07.02 17:09:36:649,462,-0.10033,-0.19080,9.87461,-647408939108925440.00000,0.00000,-24685744208244365821214720.00000,0.29418,-0.06275,-0.56770,-0.97148,100.60920,0.39311,0.63866,-0.00805,-0.00433,0.76944,0.00000,0.00000,0.00000,0.00000,1,0,
07.02 17:09:36:659,463,-0.04642,-0.15077,9.76954,-647408939108925440.00000,0.00000,-24685744208244365821214720.00000,0.29069,-0.06381,-0.56525,-0.97180,100.61681,0.39191,0.63861,-0.00805,-0.00434,0.76948,0.00000,0.00000,0.00000,0.00000,1,0,
07.02 17:09:36:669,464,-0.06872,-0.17080,9.84283,-647408939108925440.00000,0.00000,-24685744208244365821214720.00000,0.29417,-0.06378,-0.56621,-0.97202,100.62068,0.39191,0.63858,-0.00805,-0.00434,0.76950,0.00000,0.00000,0.00000,0.00000,1,0,
07.02 17:09:36:679,465,-0.07195,-0.16282,9.78830,-647408939108925440.00000,0.00000,-24685744208244365821214720.00000,0.29467,-0.06578,-0.56622,-0.97209,100.62135,0.39200,0.63858,-0.00805,-0.00434,0.76951,0.00000,0.00000,0.00000,0.00000,1,0,
07.02 17:09:36:689,466,-0.05071,-0.17427,9.84226,-647408939108925440.00000,0.00000,-24685744208244365821214720.00000,0.29217,-0.06533,-0.56375,-0.97139,100.60789,0.39146,0.63867,-0.00804,-0.00434,0.76943,0.00000,0.00000,0.00000,0.00000,1,0,
07.02 17:09:36:701,467,-0.05801,-0.16232,9.80456,-647408939108925440.00000,0.00000,-24685744208244365821214720.00000,0.29267,-0.06532,-0.56424,-0.97104,100.60397,0.39078,0.63869,-0.00804,-0.00434,0.76941,0.00000,0.00000,0.00000,0.00000,1,0,
07.02 17:09:36:710,468,-0.08377,-0.18198,9.81520,-647408939108925440.00000,0.00000,-24685744208244365821214720.00000,0.29218,-0.06478,-0.56623,-0.97102,100.60121,0.39116,0.63871,-0.00804,-0.00434,0.76939,0.00000,0.00000,0.00000,0.00000,1,0,
07.02 17:09:36:719,469,-0.06859,-0.15115,9.81708,-647408939108925440.00000,0.00000,-24685744208244365821214720.00000,0.29218,-0.06479,-0.56574,-0.96956,100.61408,0.39039,0.63862,-0.00803,-0.00433,0.76946,0.00000,0.00000,0.00000,0.00000,1,0,
07.02 17:09:36:729,470,-0.06679,-0.13366,9.80685,-647408939108925440.00000,0.00000,-24685744208244365821214720.00000,0.29416,-0.06582,-0.56423,-0.96952,100.61701,0.39000,0.63860,-0.00802,-0.00434,0.76948,0.00000,0.00000,0.00000,0.00000,1,0,
07.02 17:09:36:739,471,-0.06114,-0.16948,9.81147,-647408939108925440.00000,0.00000,-24685744208244365821214720.00000,0.29418,-0.06626,-0.56722,-0.97123,100.61671,0.38969,0.63861,-0.00803,-0.00435,0.76948,0.00000,0.00000,0.00000,0.00000,1,0,
07.02 17:09:36:748,472,-0.07607,-0.19958,9.79905,-647408939108925440.00000,0.00000,-24685744208244365821214720.00000,0.29268,-0.06428,-0.56623,-0.97136,100.63367,0.38867,0.63849,-0.00802,-0.00436,0.76957,0.00000,0.00000,0.00000,0.00000,1,0,
07.02 17:09:36:761,473,-0.03518,-0.18253,9.80966,-647408939108925440.00000,0.00000,-24685744208244365821214720.00000,0.29119,-0.06378,-0.56674,-0.97103,100.63297,0.38764,0.63850,-0.00801,-0.00436,0.76957,0.00000,0.00000,0.00000,0.00000,1,0,
07.02 17:09:36:769,474,-0.07185,-0.16677,9.79550,-647408939108925440.00000,0.00000,-24685744208244365821214720.00000,0.29269,-0.06575,-0.56773,-0.97004,100.62104,0.38848,0.63858,-0.00801,-0.00435,0.76950,0.00000,0.00000,0.00000,0.00000,1,0,
07.02 17:09:36:778,475,-0.07597,-0.16681,9.80971,-647408939108925440.00000,0.00000,-24685744208244365821214720.00000,0.29269,-0.06426,-0.56722,-0.97126,100.62340,0.38830,0.63856,-0.00802,-0.00436,0.76952,0.00000,0.00000,0.00000,0.00000,1,0,
07.02 17:09:36:790,476,-0.06069,-0.16918,9.82361,-647408939108925440.00000,0.00000,-24685744208244365821214720.00000,0.29219,-0.06375,-0.56822,-0.97014,100.61897,0.38750,0.63859,-0.00801,-0.00436,0.76949,0.00000,0.00000,0.00000,0.00000,1,0,
07.02 17:09:36:799,477,-0.06323,-0.17669,9.80163,-647408939108925440.00000,0.00000,-24685744208244365821214720.00000,0.29219,-0.06777,-0.56674,-0.96991,100.62608,0.38737,0.63854,-0.00801,-0.00435,0.76953,0.00000,0.00000,0.00000,0.00000,1,0,
07.02 17:09:36:810,478,-0.06488,-0.17528,9.80907,-647408939108925440.00000,0.00000,-24685744208244365821214720.00000,0.29318,-0.06727,-0.56673,-0.96938,100.58761,0.38785,0.63880,-0.00801,-0.00435,0.76932,0.00000,0.00000,0.00000,0.00000,1,0,
07.02 17:09:36:818,479,-0.04052,-0.14287,9.82003,-647408939108925440.00000,0.00000,-24685744208244365821214720.00000,0.29170,-0.06324,-0.56872,-0.96832,100.59708,0.38734,0.63874,-0.00800,-0.00434,0.76937,0.00000,0.00000,0.00000,0.00000,1,0,
07.02 17:09:36:828,480,-0.04369,-0.15955,9.78320,-647408939108925440.00000,0.00000,-24685744208244365821214720.00000,0.29417,-0.06378,-0.56621,-0.96932,100.58710,0.38762,0.63881,-0.00801,-0.00435,0.76931,0.00000,0.00000,0.00000,0.00000,1,0,
07.02 17:09:36:839,481,-0.04164,-0.15555,9.80864,-647408939108925440.00000,0.00000,-24685744208244365821214720.00000,0.29119,-0.06480,-0.56574,-0.96935,100.58662,0.38935,0.63881,-0.00802,-0.00434,0.76931,0.00000,0.00000,0.00000,0.00000,1,0,
07.02 17:09:36:850,482,-0.05047,-0.15048,9.80106,-647408939108925440.00000,0.00000,-24685744208244365821214720.00000,0.29266,-0.06334,-0.56324,-0.96873,100.58836,0.38933,0.63880,-0.00801,-0.00433,0.76932,0.00000,0.00000,0.00000,0.00000,1,0,
07.02 17:09:36:859,483,-0.07830,-0.16602,9.81545,-647408939108925440.00000,0.00000,-24685744208244365821214720.00000,0.29269,-0.06525,-0.56772,-0.96885,100.59458,0.39089,0.63876,-0.00803,-0.00433,0.76936,0.00000,0.00000,0.00000,0.00000,1,0,
07.02 17:09:36:869,484,-0.08317,-0.20020,9.79088,-647408939108925440.00000,0.00000,-24685744208244365821214720.00000,0.29318,-0.06376,-0.56722,-0.96995,100.59293,0.39253,0.63877,-0.00804,-0.00432,0.76935,0.00000,0.00000,0.00000,0.00000,1,0,
07.02 17:09:36:879,485,-0.05697,-0.17688,9.82759,-647408939108925440.00000,0.00000,-24685744208244365821214720.00000,0.29218,-0.06729,-0.56574,-0.97029,100.59525,0.39191,0.63875,-0.00804,-0.00433,0.76936,0.00000,0.00000,0.00000,0.00000,1,0,
07.02 17:09:36:889,486,-0.04841,-0.15210,9.77142,-647408939108925440.00000,0.00000,-24685744208244365821214720.00000,0.29119,-0.06430,-0.56574,-0.97019,100.61369,0.39197,0.63863,-0.00804,-0.00433,0.76946,0.00000,0.00000,0.00000,0.00000,1,0,
07.02 17:09:36:899,487,-0.07002,-0.18535,9.80742,-647408939108925440.00000,0.00000,-24685744208244365821214720.00000,0.29415,-0.06534,-0.56323,-0.97068,100.61764,0.39266,0.63860,-0.00805,-0.00433,0.76948,0.00000,0.00000,0.00000,0.00000,1,0,
07.02 17:09:36:910,488,-0.04073,-0.15786,9.80568,-647408939108925440.00000,0.00000,-24685744208244365821214720.00000,0.29318,-0.06576,-0.56722,-0.97063,100.62553,0.39272,0.63855,-0.00805,-0.00433,0.76953,0.00000,0.00000,0.00000,0.00000,1,0,
07.02 17:09:36:919,489,-0.04123,-0.16547,9.79419,-647408939108925440.00000,0.00000,-24685744208244365821214720.00000,0.29417,-0.06379,-0.56572,-0.97153,100.62897,0.39303,0.63852,-0.00805,-0.00433,0.76955,0.00000,0.00000,0.00000,0.00000,1,0,
07.02 17:09:36:929,490,-0.07100,-0.15764,9.80513,-647408939108925440.00000,0.00000,-24685744208244365821214720.00000,0.29219,-0.06727,-0.56674,-0.97141,100.61982,0.39453,0.63859,-0.00806,-0.00432,0.76950,0.00000,0.00000,0.00000,0.00000,1,0,
07.02 17:09:36:939,491,-0.07054,-0.17997,9.80420,-647408939108925440.00000,0.00000,-24685744208244365821214720.00000,0.29069,-0.06432,-0.56475,-0.97138,100.60690,0.39467,0.63867,-0.00806,-0.00432,0.76942,0.00000,0.00000,0.00000,0.00000,1,0,
07.02 17:09:36:949,492,-0.08315,-0.17620,9.84164,-647408939108925440.00000,0.00000,-24685744208244365821214720.00000,0.29417,-0.06529,-0.56572,-0.96940,100.61800,0.39442,0.63860,-0.00805,-0.00431,0.76949,0.00000,0.00000,0.00000,0.00000,1,0,
07.02 17:09:36:959,493,-0.06937,-0.17944,9.78382,-647408939108925440.00000,0.00000,-24685744208244365821214720.00000,0.29169,-0.06427,-0.56723,-0.96921,100.61869,0.39439,0.63859,-0.00805,-0.00431,0.76949,0.00000,0.00000,0.00000,0.00000,1,0,
07.02 17:09:36:969,494,-0.06105,-0.14502,9.81379,-647408939108925440.00000,0.00000,-24685744208244365821214720.00000,0.29169,-0.06779,-0.56575,-0.96827,100.62025,0.39348,0.63858,-0.00804,-0.00431,0.76950,0.00000,0.00000,0.00000,0.00000,1,0,
07.02 17:09:36:979,495,-0.03422,-0.13367,9.80156,-647408939108925440.00000,0.00000,-24685744208244365821214720.00000,0.29169,-0.06577,-0.56674,-0.96865,100.63511,0.39228,0.63848,-0.00803,-0.00432,0.76958,0.00000,0.00000,0.00000,0.00000,1,0,
07.02 17:09:36:989,496,-0.05102,-0.17412,9.82547,-647408939108925440.00000,0.00000,-24685744208244365821214720.00000,0.29319,-0.06274,-0.56821,-0.97076,100.64528,0.39274,0.63841,-0.00805,-0.00433,0.76964,0.00000,0.00000,0.00000,0.00000,1,0,
07.02 17:09:37:000,497,-0.08811,-0.17748,9.79242,-647408939108925440.00000,0.00000,-24685744208244365821214720.00000,0.29317,-0.06279,-0.56572,-0.97229,100.64551,0.39301,0.63841,-0.00806,-0.00434,0.76964,0.00000,0.00000,0.00000,0.00000,1,0,
07.02 17:09:37:010,498,-0.06289,-0.19106,9.82309,-647408939108925440.00000,0.00000,-24685744208244365821214720.00000,0.29367,-0.06479,-0.56572,-0.97309,100.63744,0.39276,0.63847,-0.00806,-0.00435,0.76959,0.00000,0.00000,0.00000,0.00000,1,0,
07.02 17:09:37:020,499,-0.05021,-0.17585,9.79435,-647408939108925440.00000,0.00000,-24685744208244365821214720.00000,0.29367,-0.06531,-0.56473,-0.97392,100.64312,0.39318,0.63843,-0.00807,-0.00435,0.76963,0.00000,0.00000,0.00000,0.00000,1,0,
07.02 17:09:37:030,500,-0.09944,-0.20196,9.84535,-647408939108925440.00000,0.00000,-24685744208244365821214720.00000,0.29417,-0.06477,-0.56671,-0.97317,100.64937,0.39485,0.63839,-0.00807,-0.00434,0.76966,0.00000,0.00000,0.00000,0.00000,1,0,
07.02 17:09:37:043,501,-0.11199,-0.16328,9.76982,-647408939108925440.00000,0.00000,-24685744208244365821214720.00000,0.29169,-0.06579,-0.56574,-0.97185,100.64682,0.39521,0.63840,-0.00807,-0.00433,0.76965,0.00000,0.00000,0.00000,0.00000,1,0,
07.02 17:09:37:048,502,-0.05988,-0.16695,9.85034,-647408939108925440.00000,0.00000,-24685744208244365821214720.00000,0.29266,-0.06334,-0.56324,-0.97017,100.65279,0.39349,0.63836,-0.00805,-0.00432,0.76968,0.00000,0.00000,0.00000,0.00000,1,0,
07.02 17:09:37:059,503,-0.06447,-0.14042,9.75092,-647408939108925440.00000,0.00000,-24685744208244365821214720.00000,0.29267,-0.06582,-0.56424,-0.97008,100.65002,0.39254,0.63838,-0.00804,-0.00433,0.76966,0.00000,0.00000,0.00000,0.00000,1,0,
07.02 17:09:37:069,504,-0.04251,-0.16370,9.81207,-647408939108925440.00000,0.00000,-24685744208244365821214720.00000,0.29417,-0.06277,-0.56671,-0.97075,100.63595,0.39242,0.63848,-0.00804,-0.00433,0.76959,0.00000,0.00000,0.00000,0.00000,1,0,
07.02 17:09:37:080,505,-0.03680,-0.15320,9.77011,-647408939108925440.00000,0.00000,-24685744208244365821214720.00000,0.29365,-0.06335,-0.56273,-0.97024,100.62855,0.39255,0.63853,-0.00804,-0.00433,0.76955,0.00000,0.00000,0.00000,0.00000,1,0,
07.02 17:09:37:089,506,-0.04828,-0.19929,9.89364,-647408939108925440.00000,0.00000,-24685744208244365821214720.00000,0.29267,-0.06434,-0.56324,-0.97041,100.63326,0.39326,0.63850,-0.00805,-0.00433,0.76957,0.00000,0.00000,0.00000,0.00000,1,0,
07.02 17:09:37:100,507,-0.06932,-0.13959,9.72283,-647408939108925440.00000,0.00000,-24685744208244365821214720.00000,0.29217,-0.06483,-0.56374,-0.96986,100.63381,0.39591,0.63849,-0.00806,-0.00431,0.76957,0.00000,0.00000,0.00000,0.00000,1,0,
07.02 17:09:37:110,508,-0.13665,-0.16078,9.89442,-647408939108925440.00000,0.00000,-24685744208244365821214720.00000,0.29316,-0.06283,-0.56373,-0.96803,100.62784,0.39705,0.63853,-0.00806,-0.00429,0.76954,0.00000,0.00000,0.00000,0.00000,1,0,
07.02 17:09:37:121,509,-0.04366,-0.10419,9.75542,-647408939108925440.00000,0.00000,-24685744208244365821214720.00000,0.29020,-0.06730,-0.56576,-0.96879,100.62946,0.39511,0.63852,-0.00805,-0.00430,0.76955,0.00000,0.00000,0.00000,0.00000,1,0,
07.02 17:09:37:129,510,-0.08538,-0.15678,9.87015,-647408939108925440.00000,0.00000,-24685744208244365821214720.00000,0.29268,-0.06280,-0.56572,-0.97018,100.60433,0.39548,0.63869,-0.00806,-0.00431,0.76941,0.00000,0.00000,0.00000,0.00000,1,0,
07.02 17:09:37:141,511,-0.05063,-0.15563,9.75237,-647408939108925440.00000,0.00000,-24685744208244365821214720.00000,0.29268,-0.06281,-0.56523,-0.97089,100.61298,0.39443,0.63863,-0.00806,-0.00432,0.76946,0.00000,0.00000,0.00000,0.00000,1,0,
07.02 17:09:37:150,512,-0.03733,-0.20481,9.85594,-647408939108925440.00000,0.00000,-24685744208244365821214720.00000,0.29168,-0.06583,-0.56375,-0.97146,100.61468,0.39351,0.63862,-0.00806,-0.00433,0.76947,0.00000,0.00000,0.00000,0.00000,1,0,
07.02 17:09:37:160,513,-0.06167,-0.19623,9.77636,-647408939108925440.00000,0.00000,-24685744208244365821214720.00000,0.29119,-0.06280,-0.56574,-0.97293,100.61707,0.39439,0.63860,-0.00807,-0.00434,0.76948,0.00000,0.00000,0.00000,0.00000,1,0,
07.02 17:09:37:169,514,-0.10115,-0.19404,9.82857,-647408939108925440.00000,0.00000,-24685744208244365821214720.00000,0.29219,-0.06477,-0.56673,-0.97253,100.61309,0.39665,0.63863,-0.00808,-0.00432,0.76946,0.00000,0.00000,0.00000,0.00000,1,0,
07.02 17:09:37:180,515,-0.06226,-0.16048,9.83346,-647408939108925440.00000,0.00000,-24685744208244365821214720.00000,0.29367,-0.06478,-0.56622,-0.97070,100.60683,0.39553,0.63867,-0.00807,-0.00431,0.76942,0.00000,0.00000,0.00000,0.00000,1,0,
07.02 17:09:37:189,516,-0.05502,-0.15768,9.80699,-647408939108925440.00000,0.00000,-24685744208244365821214720.00000,0.29267,-0.06633,-0.56375,-0.97233,100.60763,0.39589,0.63867,-0.00808,-0.00432,0.76943,0.00000,0.00000,0.00000,0.00000,1,0,
07.02 17:09:37:200,517,-0.09521,-0.15707,9.80971,-647408939108925440.00000,0.00000,-24685744208244365821214720.00000,0.29268,-0.06429,-0.56573,-0.97146,100.61040,0.39642,0.63865,-0.00808,-0.00431,0.76944,0.00000,0.00000,0.00000,0.00000,1,0,
07.02 17:09:37:209,518,-0.06005,-0.14868,9.81500,-647408939108925440.00000,0.00000,-24685744208244365821214720.00000,0.29118,-0.06432,-0.56475,-0.97092,100.61146,0.39514,0.63864,-0.00806,-0.00432,0.76945,0.00000,0.00000,0.00000,0.00000,1,0,
07.02 17:09:37:220,519,-0.03249,-0.15238,9.83007,-647408939108925440.00000,0.00000,-24685744208244365821214720.00000,0.29168,-0.06382,-0.56474,-0.97103,100.60901,0.39470,0.63866,-0.00806,-0.00432,0.76944,0.00000,0.00000,0.00000,0.00000,1,0,
07.02 17:09:37:229,520,-0.07334,-0.15053,9.76954,-647408939108925440.00000,0.00000,-24685744208244365821214720.00000,0.29218,-0.06481,-0.56474,-0.97132,100.60748,0.39503,0.63867,-0.00807,-0.00432,0.76943,0.00000,0.00000,0.00000,0.00000,1,0,
07.02 17:09:37:239,521,-0.06015,-0.14512,9.80587,-647408939108925440.00000,0.00000,-24685744208244365821214720.00000,0.29218,-0.06232,-0.56473,-0.97076,100.60875,0.39455,0.63866,-0.00806,-0.00432,0.76943,0.00000,0.00000,0.00000,0.00000,1,0,
07.02 17:09:37:249,522,-0.07227,-0.18261,9.83863,-647408939108925440.00000,0.00000,-24685744208244365821214720.00000,0.29267,-0.06582,-0.56424,-0.97040,100.58272,0.39492,0.63883,-0.00806,-0.00431,0.76929,0.00000,0.00000,0.00000,0.00000,1,0,
07.02 17:09:37:261,523,-0.08551,-0.16611,9.80380,-647408939108925440.00000,0.00000,-24685744208244365821214720.00000,0.29119,-0.06431,-0.56524,-0.97022,100.57421,0.39592,0.63889,-0.00807,-0.00431,0.76924,0.00000,0.00000,0.00000,0.00000,1,0,
07.02 17:09:37:269,524,-0.09595,-0.16346,9.82003,-647408939108925440.00000,0.00000,-24685744208244365821214720.00000,0.29168,-0.06534,-0.56375,-0.96955,100.56807,0.39658,0.63893,-0.00807,-0.00430,0.76921,0.00000,0.00000,0.00000,0.00000,1,0,
07.02 17:09:37:279,525,-0.05915,-0.17266,9.79312,-647408939108925440.00000,0.00000,-24685744208244365821214720.00000,0.28970,-0.06482,-0.56476,-0.96860,100.56480,0.39647,0.63895,-0.00806,-0.00429,0.76919,0.00000,0.00000,0.00000,0.00000,1,0,
07.02 17:09:37:289,526,-0.05816,-0.21216,9.80523,-647408939108925440.00000,0.00000,-24685744208244365821214720.00000,0.29317,-0.06281,-0.56473,-0.97006,100.56043,0.39592,0.63898,-0.00807,-0.00430,0.76917,0.00000,0.00000,0.00000,0.00000,1,0,
07.02 17:09:37:299,527,-0.04775,-0.18698,9.75924,-647408939108925440.00000,0.00000,-24685744208244365821214720.00000,0.29317,-0.06432,-0.56423,-0.97028,100.55415,0.39538,0.63903,-0.00806,-0.00431,0.76913,0.00000,0.00000,0.00000,0.00000,1,0,
07.02 17:09:37:310,528,-0.06687,-0.16843,9.84087,-647408939108925440.00000,0.00000,-24685744208244365821214720.00000,0.29169,-0.06279,-0.56623,-0.96947,100.55289,0.39528,0.63903,-0.00806,-0.00430,0.76912,0.00000,0.00000,0.00000,0.00000,1,0,
07.02 17:09:37:319,529,-0.06327,-0.14356,9.77276,-647408939108925440.00000,0.00000,-24685744208244365821214720.00000,0.29465,-0.06434,-0.56323,-0.96943,100.55625,0.39658,0.63901,-0.00807,-0.00430,0.76914,0.00000,0.00000,0.00000,0.00000,1,0,
07.02 17:09:37:329,530,-0.07781,-0.14880,9.79560,-647408939108925440.00000,0.00000,-24685744208244365821214720.00000,0.29218,-0.06381,-0.56523,-0.96935,100.56374,0.39809,0.63896,-0.00808,-0.00429,0.76918,0.00000,0.00000,0.00000,0.00000,1,0,
07.02 17:09:37:339,531,-0.06890,-0.16616,9.82306,-647408939108925440.00000,0.00000,-24685744208244365821214720.00000,0.29268,-0.06580,-0.56524,-0.96947,100.56377,0.39646,0.63896,-0.00807,-0.00430,0.76918,0.00000,0.00000,0.00000,0.00000,1,0,
07.02 17:09:37:349,532,-0.05601,-0.17315,9.80580,-647408939108925440.00000,0.00000,-24685744208244365821214720.00000,0.29516,-0.06529,-0.56571,-0.96969,100.55900,0.39619,0.63899,-0.00807,-0.00430,0.76916,0.00000,0.00000,0.00000,0.00000,1,0,
07.02 17:09:37:358,533,-0.07722,-0.17555,9.79965,-647408939108925440.00000,0.00000,-24685744208244365821214720.00000,0.29118,-0.06433,-0.56425,-0.97024,100.54968,0.39644,0.63906,-0.00807,-0.00430,0.76911,0.00000,0.00000,0.00000,0.00000,1,0,
07.02 17:09:37:370,534,-0.06169,-0.18157,9.81212,-647408939108925440.00000,0.00000,-24685744208244365821214720.00000,0.29217,-0.06483,-0.56374,-0.97049,100.54961,0.39614,0.63906,-0.00807,-0.00430,0.76911,0.00000,0.00000,0.00000,0.00000,1,0,
07.02 17:09:37:379,535,-0.03104,-0.16602,9.80432,-647408939108925440.00000,0.00000,-24685744208244365821214720.00000,0.29168,-0.06383,-0.56424,-0.96880,100.54456,0.39561,0.63909,-0.00806,-0.00430,0.76908,0.00000,0.00000,0.00000,0.00000,1,0,
07.02 17:09:37:389,536,-0.07954,-0.18471,9.80015,-647408939108925440.00000,0.00000,-24685744208244365821214720.00000,0.29365,-0.06336,-0.56223,-0.96827,100.54588,0.39673,0.63908,-0.00806,-0.00429,0.76908,0.00000,0.00000,0.00000,0.00000,1,0,
07.02 17:09:37:400,537,-0.08682,-0.17837,9.80842,-647408939108925440.00000,0.00000,-24685744208244365821214720.00000,0.29367,-0.06481,-0.56473,-0.96746,100.53478,0.39766,0.63916,-0.00807,-0.00427,0.76902,0.00000,0.00000,0.00000,0.00000,1,0,
07.02 17:09:37:412,538,-0.08886,-0.16236,9.82941,-647408939108925440.00000,0.00000,-24685744208244365821214720.00000,0.29119,-0.06381,-0.56524,-0.96566,100.54088,0.39780,0.63912,-0.00806,-0.00426,0.76906,0.00000,0.00000,0.00000,0.00000,1,0,
07.02 17:09:37:423,539,-0.09072,-0.17685,9.80770,-647408939108925440.00000,0.00000,-24685744208244365821214720.00000,0.29416,-0.06481,-0.56472,-0.96636,100.54675,0.39911,0.63908,-0.00807,-0.00426,0.76909,0.00000,0.00000,0.00000,0.00000,1,0,
07.02 17:09:37:429,540,-0.08980,-0.16824,9.80611,-647408939108925440.00000,0.00000,-24685744208244365821214720.00000,0.29416,-0.06632,-0.56423,-0.96777,100.54525,0.39913,0.63909,-0.00808,-0.00427,0.76908,0.00000,0.00000,0.00000,0.00000,1,0,
07.02 17:09:37:438,541,-0.03992,-0.16167,9.81252,-647408939108925440.00000,0.00000,-24685744208244365821214720.00000,0.29317,-0.06429,-0.56573,-0.96790,100.53449,0.39775,0.63916,-0.00807,-0.00428,0.76902,0.00000,0.00000,0.00000,0.00000,1,0,
07.02 17:09:37:452,542,-0.04912,-0.16144,9.81064,-647408939108925440.00000,0.00000,-24685744208244365821214720.00000,0.29267,-0.06282,-0.56473,-0.96824,100.53463,0.39808,0.63916,-0.00807,-0.00428,0.76902,0.00000,0.00000,0.00000,0.00000,1,0,
07.02 17:09:37:459,543,-0.05131,-0.13161,9.78952,-647408939108925440.00000,0.00000,-24685744208244365821214720.00000,0.29168,-0.06531,-0.56524,-0.96637,100.54202,0.39857,0.63911,-0.00806,-0.00426,0.76906,0.00000,0.00000,0.00000,0.00000,1,0,
07.02 17:09:37:469,544,-0.05211,-0.14885,9.80241,-647408939108925440.00000,0.00000,-24685744208244365821214720.00000,0.29415,-0.06384,-0.56323,-0.96549,100.54601,0.39681,0.63908,-0.00805,-0.00427,0.76909,0.00000,0.00000,0.00000,0.00000,1,0,
07.02 17:09:37:481,545,-0.04924,-0.16949,9.80544,-647408939108925440.00000,0.00000,-24685744208244365821214720.00000,0.29168,-0.06482,-0.56474,-0.96753,100.54311,0.39701,0.63910,-0.00806,-0.00428,0.76907,0.00000,0.00000,0.00000,0.00000,1,0,
07.02 17:09:37:489,546,-0.04985,-0.19098,9.79364,-647408939108925440.00000,0.00000,-24685744208244365821214720.00000,0.29217,-0.06485,-0.56275,-0.96796,100.53900,0.39696,0.63913,-0.00806,-0.00428,0.76905,0.00000,0.00000,0.00000,0.00000,1,0,
07.02 17:09:37:499,547,-0.06321,-0.18564,9.80588,-647408939108925440.00000,0.00000,-24685744208244365821214720.00000,0.29219,-0.06427,-0.56673,-0.96660,100.54932,0.39747,0.63906,-0.00806,-0.00427,0.76910,0.00000,0.00000,0.00000,0.00000,1,0,
07.02 17:09:37:509,548,-0.06161,-0.16056,9.81586,-647408939108925440.00000,0.00000,-24685744208244365821214720.00000,0.29416,-0.06433,-0.56373,-0.96618,100.55589,0.39845,0.63901,-0.00806,-0.00426,0.76914,0.00000,0.00000,0.00000,0.00000,1,0,
07.02 17:09:37:518,549,-0.08085,-0.16027,9.78465,-647408939108925440.00000,0.00000,-24685744208244365821214720.00000,0.29318,-0.06578,-0.56623,-0.96466,100.56358,0.40005,0.63896,-0.00806,-0.00424,0.76918,0.00000,0.00000,0.00000,0.00000,1,0,
07.02 17:09:37:529,550,-0.09349,-0.17945,9.81448,-647408939108925440.00000,0.00000,-24685744208244365821214720.00000,0.29118,-0.06482,-0.56475,-0.96382,100.56048,0.40139,0.63898,-0.00807,-0.00423,0.76917,0.00000,0.00000,0.00000,0.00000,1,0,
07.02 17:09:37:539,551,-0.07442,-0.17769,9.86479,-647408939108925440.00000,0.00000,-24685744208244365821214720.00000,0.29317,-0.06382,-0.56423,-0.96262,100.56269,0.40119,0.63897,-0.00806,-0.00422,0.76918,0.00000,0.00000,0.00000,0.00000,1,0,
07.02 17:09:37:549,552,-0.06599,-0.11981,9.76041,-647408939108925440.00000,0.00000,-24685744208244365821214720.00000,0.29268,-0.06529,-0.56573,-0.96125,100.56274,0.40291,0.63897,-0.00806,-0.00421,0.76918,0.00000,0.00000,0.00000,0.00000,1,0,
07.02 17:09:37:559,553,-0.07655,-0.15554,9.80146,-647408939108925440.00000,0.00000,-24685744208244365821214720.00000,0.29119,-0.06531,-0.56525,-0.96081,100.56239,0.40269,0.63897,-0.00806,-0.00420,0.76918,0.00000,0.00000,0.00000,0.00000,1,0,
07.02 17:09:37:569,554,-0.06533,-0.15764,9.83739,-647408939108925440.00000,0.00000,-24685744208244365821214720.00000,0.29367,-0.06480,-0.56523,-0.96032,100.56250,0.40182,0.63897,-0.00805,-0.00421,0.76918,0.00000,0.00000,0.00000,0.00000,1,0,
07.02 17:09:37:579,555,-0.05856,-0.17807,9.81198,-647408939108925440.00000,0.00000,-24685744208244365821214720.00000,0.29367,-0.06730,-0.56523,-0.96108,100.56204,0.40147,0.63897,-0.00805,-0.00421,0.76917,0.00000,0.00000,0.00000,0.00000,1,0,
07.02 17:09:37:588,556,-0.09904,-0.16852,9.80151,-647408939108925440.00000,0.00000,-24685744208244365821214720.00000,0.29168,-0.06580,-0.56525,-0.96114,100.55885,0.40267,0.63899,-0.00806,-0.00421,0.76916,0.00000,0.00000,0.00000,0.00000,1,0,
07.02 17:09:37:598,557,-0.04469,-0.17043,9.85501,-647408939108925440.00000,0.00000,-24685744208244365821214720.00000,0.29317,-0.06381,-0.56473,-0.96002,100.56397,0.40131,0.63896,-0.00805,-0.00421,0.76919,0.00000,0.00000,0.00000,0.00000,1,0,
07.02 17:09:37:611,558,-0.03182,-0.13209,9.73833,-647408939108925440.00000,0.00000,-24685744208244365821214720.00000,0.29218,-0.06530,-0.56524,-0.95897,100.56293,0.40070,0.63897,-0.00804,-0.00420,0.76918,0.00000,0.00000,0.00000,0.00000,1,0,
07.02 17:09:37:620,559,-0.07758,-0.17369,9.84817,-647408939108925440.00000,0.00000,-24685744208244365821214720.00000,0.29266,-0.06435,-0.56274,-0.95960,100.56401,0.40184,0.63896,-0.00805,-0.00420,0.76919,0.00000,0.00000,0.00000,0.00000,1,0,
07.02 17:09:37:630,560,-0.05639,-0.16855,9.76024,-647408939108925440.00000,0.00000,-24685744208244365821214720.00000,0.29366,-0.06383,-0.56373,-0.95945,100.56931,0.40122,0.63892,-0.00804,-0.00420,0.76922,0.00000,0.00000,0.00000,0.00000,1,0,
07.02 17:09:37:639,561,-0.04601,-0.19666,9.85725,-647408939108925440.00000,0.00000,-24685744208244365821214720.00000,0.29118,-0.06333,-0.56424,-0.95892,100.56823,0.40164,0.63893,-0.00804,-0.00420,0.76921,0.00000,0.00000,0.00000,0.00000,1,0,
07.02 17:09:37:650,562,-0.07677,-0.15902,9.75039,-647408939108925440.00000,0.00000,-24685744208244365821214720.00000,0.29367,-0.06530,-0.56523,-0.95919,100.56234,0.40242,0.63897,-0.00805,-0.00419,0.76918,0.00000,0.00000,0.00000,0.00000,1,0,
07.02 17:09:37:659,563,-0.06439,-0.20538,9.85756,-647408939108925440.00000,0.00000,-24685744208244365821214720.00000,0.29169,-0.06480,-0.56574,-0.96021,100.56683,0.40285,0.63894,-0.00806,-0.00420,0.76920,0.00000,0.00000,0.00000,0.00000,1,0,
07.02 17:09:37:669,564,-0.07185,-0.18292,9.78370,-647408939108925440.00000,0.00000,-24685744208244365821214720.00000,0.29416,-0.06530,-0.56522,-0.96021,100.55830,0.40173,0.63900,-0.00805,-0.00420,0.76915,0.00000,0.00000,0.00000,0.00000,1,0,
07.02 17:09:37:679,565,-0.11344,-0.17154,9.83815,-647408939108925440.00000,0.00000,-24685744208244365821214720.00000,0.29267,-0.06582,-0.56424,-0.96039,100.55638,0.40356,0.63901,-0.00806,-0.00420,0.76914,0.00000,0.00000,0.00000,0.00000,1,0,
07.02 17:09:37:689,566,-0.09411,-0.14442,9.79500,-647408939108925440.00000,0.00000,-24685744208244365821214720.00000,0.29217,-0.06483,-0.56374,-0.96065,100.54438,0.40527,0.63909,-0.00808,-0.00419,0.76908,0.00000,0.00000,0.00000,0.00000,1,0,
07.02 17:09:37:699,567,-0.06061,-0.15865,9.82316,-647408939108925440.00000,0.00000,-24685744208244365821214720.00000,0.29218,-0.06581,-0.56474,-0.95991,100.54259,0.40365,0.63910,-0.00806,-0.00419,0.76907,0.00000,0.00000,0.00000,0.00000,1,0,
07.02 17:09:37:709,568,-0.04429,-0.17521,9.78909,-647408939108925440.00000,0.00000,-24685744208244365821214720.00000,0.29316,-0.06636,-0.56225,-0.96134,100.53489,0.40411,0.63916,-0.00807,-0.00420,0.76902,0.00000,0.00000,0.00000,0.00000,1,0,
07.02 17:09:37:719,569,-0.03313,-0.19113,9.80254,-647408939108925440.00000,0.00000,-24685744208244365821214720.00000,0.29465,-0.06384,-0.56322,-0.96140,100.52007,0.40368,0.63926,-0.00807,-0.00420,0.76894,0.00000,0.00000,0.00000,0.00000,1,0,
07.02 17:09:37:729,570,-0.04056,-0.15736,9.81496,-647408939108925440.00000,0.00000,-24685744208244365821214720.00000,0.29018,-0.06435,-0.56326,-0.95992,100.51853,0.40373,0.63927,-0.00806,-0.00419,0.76893,0.00000,0.00000,0.00000,0.00000,1,0,
07.02 17:09:37:738,571,-0.06589,-0.16984,9.79133,-647408939108925440.00000,0.00000,-24685744208244365821214720.00000,0.29417,-0.06479,-0.56572,-0.95923,100.52193,0.40475,0.63924,-0.00807,-0.00418,0.76895,0.00000,0.00000,0.00000,0.00000,1,0,
07.02 17:09:37:748,572,-0.08755,-0.17382,9.81863,-647408939108925440.00000,0.00000,-24685744208244365821214720.00000,0.29217,-0.06383,-0.56424,-0.95936,100.52489,0.40536,0.63922,-0.00807,-0.00418,0.76897,0.00000,0.00000,0.00000,0.00000,1,0,
07.02 17:09:37:759,573,-0.08800,-0.17863,9.80230,-647408939108925440.00000,0.00000,-24685744208244365821214720.00000,0.29218,-0.06431,-0.56524,-0.95923,100.52335,0.40461,0.63923,-0.00807,-0.00418,0.76896,0.00000,0.00000,0.00000,0.00000,1,0,
07.02 17:09:37:769,574,-0.06955,-0.16942,9.83594,-647408939108925440.00000,0.00000,-24685744208244365821214720.00000,0.29167,-0.06336,-0.56275,-0.95945,100.51981,0.40465,0.63926,-0.00807,-0.00418,0.76894,0.00000,0.00000,0.00000,0.00000,1,0,
07.02 17:09:37:779,575,-0.05198,-0.14461,9.80535,-647408939108925440.00000,0.00000,-24685744208244365821214720.00000,0.29267,-0.06583,-0.56374,-0.95806,100.52135,0.40437,0.63925,-0.00806,-0.00417,0.76895,0.00000,0.00000,0.00000,0.00000,1,0,
07.02 17:09:37:790,576,-0.05413,-0.15063,9.80022,-647408939108925440.00000,0.00000,-24685744208244365821214720.00000,0.29167,-0.06535,-0.56325,-0.95840,100.52108,0.40398,0.63925,-0.00806,-0.00418,0.76895,0.00000,0.00000,0.00000,0.00000,1,0,
07.02 17:09:37:800,577,-0.03870,-0.15552,9.80208,-647408939108925440.00000,0.00000,-24685744208244365821214720.00000,0.29466,-0.06430,-0.56522,-0.95857,100.51616,0.40278,0.63928,-0.00805,-0.00418,0.76892,0.00000,0.00000,0.00000,0.00000,1,0,
07.02 17:09:37:809,578,-0.05992,-0.18277,9.80578,-647408939108925440.00000,0.00000,-24685744208244365821214720.00000,0.29467,-0.06427,-0.56671,-0.95982,100.51614,0.40347,0.63928,-0.00806,-0.00419,0.76892,0.00000,0.00000,0.00000,0.00000,1,0,
07.02 17:09:37:818,579,-0.07141,-0.18805,9.82478,-647408939108925440.00000,0.00000,-24685744208244365821214720.00000,0.29366,-0.06533,-0.56373,-0.95881,100.51582,0.40435,0.63928,-0.00806,-0.00418,0.76892,0.00000,0.00000,0.00000,0.00000,1,0,
07.02 17:09:37:828,580,-0.10679,-0.16434,9.80623,-647408939108925440.00000,0.00000,-24685744208244365821214720.00000,0.29069,-0.06330,-0.56574,-0.95822,100.51942,0.40431,0.63926,-0.00806,-0.00417,0.76894,0.00000,0.00000,0.00000,0.00000,1,0,
07.02 17:09:37:839,581,-0.07416,-0.15857,9.81672,-647408939108925440.00000,0.00000,-24685744208244365821214720.00000,0.29119,-0.06478,-0.56674,-0.95823,100.51441,0.40402,0.63929,-0.00806,-0.00418,0.76891,0.00000,0.00000,0.00000,0.00000,1,0,
07.02 17:09:37:849,582,-0.05282,-0.18944,9.79479,-647408939108925440.00000,0.00000,-24685744208244365821214720.00000,0.29266,-0.06386,-0.56224,-0.95860,100.51298,0.40311,0.63930,-0.00805,-0.00418,0.76890,0.00000,0.00000,0.00000,0.00000,1,0,
07.02 17:09:37:859,583,-0.05543,-0.18141,9.82070,-647408939108925440.00000,0.00000,-24685744208244365821214720.00000,0.29119,-0.06330,-0.56574,-0.95932,100.50770,0.40276,0.63934,-0.00805,-0.00419,0.76887,0.00000,0.00000,0.00000,0.00000,1,0,
07.02 17:09:37:869,584,-0.04059,-0.18007,9.78251,-647408939108925440.00000,0.00000,-24685744208244365821214720.00000,0.29317,-0.06381,-0.56473,-0.96015,100.51794,0.40259,0.63927,-0.00806,-0.00420,0.76893,0.00000,0.00000,0.00000,0.00000,1,0,
07.02 17:09:37:879,585,-0.05637,-0.17121,9.83088,-647408939108925440.00000,0.00000,-24685744208244365821214720.00000,0.29168,-0.06331,-0.56524,-0.95848,100.52480,0.40406,0.63922,-0.00806,-0.00418,0.76897,0.00000,0.00000,0.00000,0.00000,1,0,
07.02 17:09:37:888,586,-0.05100,-0.17052,9.81393,-647408939108925440.00000,0.00000,-24685744208244365821214720.00000,0.29218,-0.06382,-0.56474,-0.95852,100.51714,0.40411,0.63928,-0.00806,-0.00418,0.76892,0.00000,0.00000,0.00000,0.00000,1,0,
07.02 17:09:37:898,587,-0.06805,-0.17531,9.82330,-647408939108925440.00000,0.00000,-24685744208244365821214720.00000,0.29315,-0.06387,-0.56174,-0.95841,100.51833,0.40379,0.63927,-0.00806,-0.00418,0.76893,0.00000,0.00000,0.00000,0.00000,1,0,
07.02 17:09:37:909,588,-0.10198,-0.16175,9.80678,-647408939108925440.00000,0.00000,-24685744208244365821214720.00000,0.29120,-0.06528,-0.56674,-0.95869,100.52376,0.40484,0.63923,-0.00806,-0.00417,0.76896,0.00000,0.00000,0.00000,0.00000,1,0,
07.02 17:09:37:919,589,-0.09413,-0.16768,9.83937,-647408939108925440.00000,0.00000,-24685744208244365821214720.00000,0.29317,-0.06133,-0.56422,-0.95981,100.52795,0.40439,0.63920,-0.00807,-0.00419,0.76898,0.00000,0.00000,0.00000,0.00000,1,0,
07.02 17:09:37:930,590,-0.07882,-0.14414,9.81636,-647408939108925440.00000,0.00000,-24685744208244365821214720.00000,0.29218,-0.06382,-0.56474,-0.95797,100.55837,0.40522,0.63900,-0.00806,-0.00417,0.76915,0.00000,0.00000,0.00000,0.00000,1,0,
07.02 17:09:37:939,591,-0.06373,-0.16948,9.80199,-647408939108925440.00000,0.00000,-24685744208244365821214720.00000,0.29267,-0.06432,-0.56424,-0.95988,100.55826,0.40513,0.63900,-0.00807,-0.00418,0.76915,0.00000,0.00000,0.00000,0.00000,1,0,
07.02 17:09:37:949,592,-0.04578,-0.18226,9.79417,-647408939108925440.00000,0.00000,-24685744208244365821214720.00000,0.29316,-0.06483,-0.56374,-0.96043,100.55687,0.40316,0.63901,-0.00806,-0.00420,0.76915,0.00000,0.00000,0.00000,0.00000,1,0,
07.02 17:09:37:959,593,-0.02391,-0.18130,9.81286,-647408939108925440.00000,0.00000,-24685744208244365821214720.00000,0.29068,-0.06083,-0.56424,-0.95961,100.56045,0.40233,0.63898,-0.00805,-0.00420,0.76917,0.00000,0.00000,0.00000,0.00000,1,0,
07.02 17:09:37:968,594,-0.05358,-0.16758,9.78444,-647408939108925440.00000,0.00000,-24685744208244365821214720.00000,0.29366,-0.06582,-0.56423,-0.95995,100.55193,0.40291,0.63904,-0.00806,-0.00420,0.76912,0.00000,0.00000,0.00000,0.00000,1,0,
07.02 17:09:37:977,595,-0.09281,-0.14501,9.82228,-647408939108925440.00000,0.00000,-24685744208244365821214720.00000,0.29218,-0.06379,-0.56623,-0.95847,100.54330,0.40295,0.63910,-0.00805,-0.00419,0.76907,0.00000,0.00000,0.00000,0.00000,1,0,
07.02 17:09:37:989,596,-0.08061,-0.15670,9.80263,-647408939108925440.00000,0.00000,-24685744208244365821214720.00000,0.29268,-0.06480,-0.56523,-0.95866,100.55423,0.40261,0.63903,-0.00805,-0.00419,0.76913,0.00000,0.00000,0.00000,0.00000,1,0,
07.02 17:09:37:999,597,-0.08114,-0.15934,9.81550,-647408939108925440.00000,0.00000,-24685744208244365821214720.00000,0.29267,-0.06183,-0.56423,-0.95965,100.55706,0.40266,0.63901,-0.00805,-0.00420,0.76915,0.00000,0.00000,0.00000,0.00000,1,0,
07.02 17:09:38:009,598,-0.08166,-0.18425,9.78961,-647408939108925440.00000,0.00000,-24685744208244365821214720.00000,0.29217,-0.06632,-0.56425,-0.95899,100.57423,0.40256,0.63889,-0.00805,-0.00419,0.76924,0.00000,0.00000,0.00000,0.00000,1,0,
07.02 17:09:38:019,599,-0.04186,-0.16269,9.83169,-647408939108925440.00000,0.00000,-24685744208244365821214720.00000,0.29117,-0.06337,-0.56225,-0.95743,100.54487,0.40214,0.63909,-0.00804,-0.00418,0.76908,0.00000,0.00000,0.00000,0.00000,1,0,
07.02 17:09:38:029,600,-0.05492,-0.14534,9.78744,-647408939108925440.00000,0.00000,-24685744208244365821214720.00000,0.29266,-0.06437,-0.56175,-0.95740,100.54530,0.40311,0.63909,-0.00805,-0.00418,0.76908,0.00000,0.00000,0.00000,0.00000,1,0,
07.02 17:09:38:041,601,-0.06318,-0.17706,9.79202,-647408939108925440.00000,0.00000,-24685744208244365821214720.00000,0.29168,-0.06581,-0.56475,-0.97526,100.54115,0.39549,0.63911,-0.00809,-0.00434,0.76906,0.00000,0.00000,0.00000,0.00000,1,0,
07.02 17:09:38:048,602,-0.07534,-0.18302,9.80580,-647408939108925440.00000,0.00000,-24685744208244365821214720.00000,0.29316,-0.06435,-0.56274,-0.97372,100.53595,0.39601,0.63915,-0.00809,-0.00433,0.76903,0.00000,0.00000,0.00000,0.00000,1,0,
07.02 17:09:38:060,603,-0.07424,-0.16937,9.82843,-647408939108925440.00000,0.00000,-24685744208244365821214720.00000,0.29366,-0.06382,-0.56423,-0.97308,100.54082,0.39586,0.63912,-0.00808,-0.00432,0.76906,0.00000,0.00000,0.00000,0.00000,1,0,
07.02 17:09:38:069,604,-0.04668,-0.13164,9.78527,-647408939108925440.00000,0.00000,-24685744208244365821214720.00000,0.29119,-0.06381,-0.56524,-0.97245,100.54814,0.39649,0.63907,-0.00808,-0.00432,0.76910,0.00000,0.00000,0.00000,0.00000,1,0,
07.02 17:09:38:079,605,-0.06119,-0.14335,9.79107,-647408939108925440.00000,0.00000,-24685744208244365821214720.00000,0.28970,-0.06382,-0.56476,-0.97190,100.54819,0.39730,0.63907,-0.00809,-0.00431,0.76910,0.00000,0.00000,0.00000,0.00000,1,0,
07.02 17:09:38:090,606,-0.03681,-0.16507,9.83050,-647408939108925440.00000,0.00000,-24685744208244365821214720.00000,0.29268,-0.06430,-0.56523,-0.97308,100.55250,0.39810,0.63904,-0.00810,-0.00431,0.76912,0.00000,0.00000,0.00000,0.00000,1,0,
07.02 17:09:38:099,607,-0.05830,-0.18551,9.80511,-647408939108925440.00000,0.00000,-24685744208244365821214720.00000,0.29367,-0.06328,-0.56622,-0.97382,100.55309,0.39930,0.63903,-0.00811,-0.00431,0.76912,0.00000,0.00000,0.00000,0.00000,1,0,
07.02 17:09:38:109,608,-0.08814,-0.17606,9.80793,-647408939108925440.00000,0.00000,-24685744208244365821214720.00000,0.29218,-0.06580,-0.56524,-0.97271,100.55737,0.39968,0.63900,-0.00811,-0.00430,0.76915,0.00000,0.00000,0.00000,0.00000,1,0,
07.02 17:09:38:118,609,-0.06323,-0.15318,9.80458,-647408939108925440.00000,0.00000,-24685744208244365821214720.00000,0.29516,-0.06328,-0.56620,-0.97332,100.56554,0.40025,0.63895,-0.00811,-0.00430,0.76919,0.00000,0.00000,0.00000,0.00000,1,0,
07.02 17:09:38:128,610,-0.04607,-0.16449,9.81169,-647408939108925440.00000,0.00000,-24685744208244365821214720.00000,0.29218,-0.06478,-0.56623,-0.97411,100.57187,0.40061,0.63891,-0.00812,-0.00431,0.76923,0.00000,0.00000,0.00000,0.00000,1,0,
07.02 17:09:38:139,611,-0.07536,-0.16039,9.80015,-647408939108925440.00000,0.00000,-24685744208244365821214720.00000,0.29367,-0.06580,-0.56523,-0.97424,100.57141,0.40028,0.63891,-0.00812,-0.00431,0.76923,0.00000,0.00000,0.00000,0.00000,1,0,
07.02 17:09:38:150,612,-0.08476,-0.20019,9.83370,-647408939108925440.00000,0.00000,-24685744208244365821214720.00000,0.29266,-0.06435,-0.56274,-0.97254,100.56361,0.40145,0.63896,-0.00812,-0.00429,0.76918,0.00000,0.00000,0.00000,0.00000,1,0,
07.02 17:09:38:159,613,-0.06979,-0.17477,9.82123,-647408939108925440.00000,0.00000,-24685744208244365821214720.00000,0.29268,-0.06579,-0.56573,-0.97140,100.55847,0.40275,0.63900,-0.00812,-0.00427,0.76915,0.00000,0.00000,0.00000,0.00000,1,0,
07.02 17:09:38:169,614,-0.07682,-0.17079,9.78818,-647408939108925440.00000,0.00000,-24685744208244365821214720.00000,0.29319,-0.06524,-0.56822,-0.97112,100.55942,0.40158,0.63899,-0.00811,-0.00428,0.76916,0.00000,0.00000,0.00000,0.00000,1,0,
07.02 17:09:38:179,615,-0.04934,-0.18895,9.81930,-647408939108925440.00000,0.00000,-24685744208244365821214720.00000,0.29268,-0.06330,-0.56523,-0.97135,100.56020,0.40074,0.63899,-0.00811,-0.00429,0.76916,0.00000,0.00000,0.00000,0.00000,1,0,
07.02 17:09:38:189,616,-0.04378,-0.18467,9.77874,-647408939108925440.00000,0.00000,-24685744208244365821214720.00000,0.29319,-0.06625,-0.56772,-0.97167,100.56070,0.40005,0.63898,-0.00810,-0.00429,0.76917,0.00000,0.00000,0.00000,0.00000,1,0,
07.02 17:09:38:198,617,-0.05514,-0.17727,9.82766,-647408939108925440.00000,0.00000,-24685744208244365821214720.00000,0.29119,-0.06530,-0.56574,-0.97102,100.56219,0.40083,0.63897,-0.00811,-0.00428,0.76918,0.00000,0.00000,0.00000,0.00000,1,0,
07.02 17:09:38:209,618,-0.05584,-0.15616,9.77752,-647408939108925440.00000,0.00000,-24685744208244365821214720.00000,0.29169,-0.06228,-0.56673,-0.97039,100.55223,0.40063,0.63904,-0.00810,-0.00428,0.76912,0.00000,0.00000,0.00000,0.00000,1,0,
07.02 17:09:38:219,619,-0.06285,-0.14447,9.83041,-647408939108925440.00000,0.00000,-24685744208244365821214720.00000,0.29318,-0.06526,-0.56722,-0.96998,100.56216,0.40240,0.63897,-0.00811,-0.00427,0.76918,0.00000,0.00000,0.00000,0.00000,1,0,
07.02 17:09:38:230,620,-0.04156,-0.14416,9.79312,-647408939108925440.00000,0.00000,-24685744208244365821214720.00000,0.29317,-0.06532,-0.56424,-0.96881,100.55319,0.40199,0.63903,-0.00810,-0.00426,0.76913,0.00000,0.00000,0.00000,0.00000,1,0,
07.02 17:09:38:239,621,-0.06828,-0.14654,9.82442,-647408939108925440.00000,0.00000,-24685744208244365821214720.00000,0.29118,-0.06482,-0.56475,-0.96915,100.56132,0.40245,0.63898,-0.00811,-0.00426,0.76917,0.00000,0.00000,0.00000,0.00000,1,0,
07.02 17:09:38:249,622,-0.06389,-0.13838,9.80988,-647408939108925440.00000,0.00000,-24685744208244365821214720.00000,0.29318,-0.06378,-0.56622,-0.96862,100.56123,0.40254,0.63898,-0.00810,-0.00426,0.76917,0.00000,0.00000,0.00000,0.00000,1,0,
07.02 17:09:38:260,623,-0.05727,-0.14419,9.80711,-647408939108925440.00000,0.00000,-24685744208244365821214720.00000,0.29169,-0.06380,-0.56574,-0.96900,100.56267,0.40348,0.63897,-0.00811,-0.00425,0.76918,0.00000,0.00000,0.00000,0.00000,1,0,
07.02 17:09:38:270,624,-0.05472,-0.16154,9.81200,-647408939108925440.00000,0.00000,-24685744208244365821214720.00000,0.29318,-0.06276,-0.56721,-0.96958,100.56187,0.40349,0.63897,-0.00812,-0.00426,0.76917,0.00000,0.00000,0.00000,0.00000,1,0,
07.02 17:09:38:278,625,-0.07152,-0.14978,9.78086,-647408939108925440.00000,0.00000,-24685744208244365821214720.00000,0.29417,-0.06328,-0.56621,-0.97042,100.55735,0.40352,0.63900,-0.00812,-0.00426,0.76915,0.00000,0.00000,0.00000,0.00000,1,0,
07.02 17:09:38:288,626,-0.07358,-0.19048,9.84915,-647408939108925440.00000,0.00000,-24685744208244365821214720.00000,0.29318,-0.06327,-0.56672,-0.96998,100.55679,0.40384,0.63901,-0.00812,-0.00426,0.76915,0.00000,0.00000,0.00000,0.00000,1,0,
07.02 17:09:38:299,627,-0.05465,-0.17717,9.77140,-647408939108925440.00000,0.00000,-24685744208244365821214720.00000,0.29368,-0.06377,-0.56672,-0.96953,100.55321,0.40423,0.63903,-0.00812,-0.00425,0.76913,0.00000,0.00000,0.00000,0.00000,1,0,
07.02 17:09:38:310,628,-0.07622,-0.15648,9.82509,-647408939108925440.00000,0.00000,-24685744208244365821214720.00000,0.29218,-0.06478,-0.56623,-0.96997,100.55827,0.40451,0.63900,-0.00812,-0.00425,0.76915,0.00000,0.00000,0.00000,0.00000,1,0,
07.02 17:09:38:319,629,-0.05120,-0.16701,9.79357,-647408939108925440.00000,0.00000,-24685744208244365821214720.00000,0.29172,-0.06567,-0.57171,-0.97025,100.56037,0.40433,0.63898,-0.00812,-0.00426,0.76917,0.00000,0.00000,0.00000,0.00000,1,0,
07.02 17:09:38:329,630,-0.05164,-0.16726,9.81610,-647408939108925440.00000,0.00000,-24685744208244365821214720.00000,0.29118,-0.06432,-0.56475,-0.97094,100.55610,0.40527,0.63901,-0.00813,-0.00426,0.76914,0.00000,0.00000,0.00000,0.00000,1,0,
07.02 17:09:38:340,631,-0.07387,-0.17750,9.77750,-647408939108925440.00000,0.00000,-24685744208244365821214720.00000,0.29218,-0.06429,-0.56573,-0.97009,100.55637,0.40543,0.63901,-0.00813,-0.00425,0.76914,0.00000,0.00000,0.00000,0.00000,1,0,
07.02 17:09:38:348,632,-0.05848,-0.16054,9.81333,-647408939108925440.00000,0.00000,-24685744208244365821214720.00000,0.29318,-0.06478,-0.56623,-0.97059,100.55714,0.40676,0.63901,-0.00814,-0.00425,0.76915,0.00000,0.00000,0.00000,0.00000,1,0,
07.02 17:09:38:358,633,-0.04895,-0.15947,9.80644,-647408939108925440.00000,0.00000,-24685744208244365821214720.00000,0.29318,-0.06427,-0.56672,-0.97084,100.55752,0.40686,0.63900,-0.00814,-0.00425,0.76915,0.00000,0.00000,0.00000,0.00000,1,0,
07.02 17:09:38:368,634,-0.05984,-0.15064,9.81086,-647408939108925440.00000,0.00000,-24685744208244365821214720.00000,0.29417,-0.06326,-0.56721,-0.97043,100.56016,0.40723,0.63899,-0.00815,-0.00424,0.76916,0.00000,0.00000,0.00000,0.00000,1,0,
07.02 17:09:38:379,635,-0.08051,-0.15994,9.80394,-647408939108925440.00000,0.00000,-24685744208244365821214720.00000,0.29319,-0.06574,-0.56822,-0.96949,100.55874,0.40816,0.63899,-0.00815,-0.00423,0.76916,0.00000,0.00000,0.00000,0.00000,1,0,
07.02 17:09:38:389,636,-0.08180,-0.15626,9.82075,-647408939108925440.00000,0.00000,-24685744208244365821214720.00000,0.29267,-0.06631,-0.56474,-0.96895,100.55707,0.40746,0.63901,-0.00814,-0.00423,0.76915,0.00000,0.00000,0.00000,0.00000,1,0,
07.02 17:09:38:400,637,-0.06648,-0.18808,9.81906,-647408939108925440.00000,0.00000,-24685744208244365821214720.00000,0.29368,-0.06477,-0.56672,-0.96879,100.55050,0.40739,0.63905,-0.00814,-0.00423,0.76911,0.00000,0.00000,0.00000,0.00000,1,0,
07.02 17:09:38:409,638,-0.08003,-0.18437,9.80670,-647408939108925440.00000,0.00000,-24685744208244365821214720.00000,0.29169,-0.06429,-0.56624,-0.96841,100.55235,0.40771,0.63904,-0.00814,-0.00423,0.76912,0.00000,0.00000,0.00000,0.00000,1,0,
07.02 17:09:38:419,639,-0.05716,-0.16710,9.79779,-647408939108925440.00000,0.00000,-24685744208244365821214720.00000,0.29368,-0.06376,-0.56721,-0.96853,100.55333,0.40778,0.63903,-0.00814,-0.00423,0.76913,0.00000,0.00000,0.00000,0.00000,1,0,
07.02 17:09:38:429,640,-0.04275,-0.15839,9.76806,-647408939108925440.00000,0.00000,-24685744208244365821214720.00000,0.29119,-0.06480,-0.56574,-0.96901,100.55675,0.40786,0.63901,-0.00814,-0.00423,0.76915,0.00000,0.00000,0.00000,0.00000,1,0,
07.02 17:09:38:439,641,-0.08277,-0.19802,9.89466,-647408939108925440.00000,0.00000,-24685744208244365821214720.00000,0.29218,-0.06531,-0.56474,-0.97003,100.55927,0.40729,0.63899,-0.00814,-0.00424,0.76916,0.00000,0.00000,0.00000,0.00000,1,0,
07.02 17:09:38:449,642,-0.05582,-0.17562,9.71706,-647408939108925440.00000,0.00000,-24685744208244365821214720.00000,0.29368,-0.06477,-0.56672,-0.96930,100.55384,0.40653,0.63903,-0.00813,-0.00424,0.76913,0.00000,0.00000,0.00000,0.00000,1,0,
07.02 17:09:38:460,643,-0.06794,-0.15631,9.85925,-647408939108925440.00000,0.00000,-24685744208244365821214720.00000,0.29316,-0.06535,-0.56274,-0.96800,100.55397,0.40762,0.63903,-0.00813,-0.00422,0.76913,0.00000,0.00000,0.00000,0.00000,1,0,
07.02 17:09:38:469,644,-0.04201,-0.11385,9.74174,-647408939108925440.00000,0.00000,-24685744208244365821214720.00000,0.29217,-0.06333,-0.56424,-0.96767,100.56206,0.40613,0.63897,-0.00812,-0.00423,0.76917,0.00000,0.00000,0.00000,0.00000,1,0,
07.02 17:09:38:480,645,-0.05357,-0.18347,9.88803,-647408939108925440.00000,0.00000,-24685744208244365821214720.00000,0.29267,-0.06534,-0.56324,-0.96812,100.55334,0.40610,0.63903,-0.00812,-0.00423,0.76913,0.00000,0.00000,0.00000,0.00000,1,0,
07.02 17:09:38:489,646,-0.06680,-0.17070,9.68569,-647408939108925440.00000,0.00000,-24685744208244365821214720.00000,0.29417,-0.06427,-0.56671,-0.97046,100.56371,0.40632,0.63896,-0.00814,-0.00425,0.76918,0.00000,0.00000,0.00000,0.00000,1,0,
07.02 17:09:38:499,647,-0.10210,-0.19144,9.95574,-647408939108925440.00000,0.00000,-24685744208244365821214720.00000,0.29169,-0.06478,-0.56673,-0.96825,100.56158,0.40781,0.63898,-0.00814,-0.00423,0.76917,0.00000,0.00000,0.00000,0.00000,1,0,
07.02 17:09:38:509,648,-0.01723,-0.12506,9.70097,-647408939108925440.00000,0.00000,-24685744208244365821214720.00000,0.29268,-0.06479,-0.56573,-0.96677,100.55824,0.40753,0.63900,-0.00813,-0.00422,0.76915,0.00000,0.00000,0.00000,0.00000,1,0,
07.02 17:09:38:518,649,-0.11309,-0.16718,9.86257,-647408939108925440.00000,0.00000,-24685744208244365821214720.00000,0.29268,-0.06378,-0.56623,-0.96805,100.56018,0.41045,0.63898,-0.00815,-0.00421,0.76916,0.00000,0.00000,0.00000,0.00000,1,0,
07.02 17:09:38:529,650,-0.07936,-0.16588,9.72949,-647408939108925440.00000,0.00000,-24685744208244365821214720.00000,0.29367,-0.06429,-0.56572,-0.96864,100.55945,0.40936,0.63899,-0.00815,-0.00422,0.76916,0.00000,0.00000,0.00000,0.00000,1,0,
07.02 17:09:38:540,651,-0.06005,-0.19802,9.90472,-647408939108925440.00000,0.00000,-24685744208244365821214720.00000,0.29219,-0.06426,-0.56723,-0.96905,100.55962,0.40783,0.63899,-0.00814,-0.00423,0.76916,0.00000,0.00000,0.00000,0.00000,1,0,
07.02 17:09:38:549,652,-0.07502,-0.18042,9.72374,-647408939108925440.00000,0.00000,-24685744208244365821214720.00000,0.29317,-0.06232,-0.56423,-0.96887,100.56152,0.40917,0.63898,-0.00815,-0.00422,0.76917,0.00000,0.00000,0.00000,0.00000,1,0,
07.02 17:09:38:560,653,-0.10361,-0.16592,9.82328,-647408939108925440.00000,0.00000,-24685744208244365821214720.00000,0.29069,-0.06731,-0.56526,-0.96764,100.55795,0.40987,0.63900,-0.00815,-0.00421,0.76915,0.00000,0.00000,0.00000,0.00000,1,0,
07.02 17:09:38:569,654,-0.02708,-0.16408,9.80611,-647408939108925440.00000,0.00000,-24685744208244365821214720.00000,0.29317,-0.06479,-0.56573,-0.96799,100.56550,0.40727,0.63895,-0.00813,-0.00423,0.76919,0.00000,0.00000,0.00000,0.00000,1,0,
07.02 17:09:38:579,655,-0.05095,-0.19764,9.83065,-647408939108925440.00000,0.00000,-24685744208244365821214720.00000,0.29219,-0.06327,-0.56722,-0.96797,100.56646,0.40888,0.63894,-0.00814,-0.00422,0.76920,0.00000,0.00000,0.00000,0.00000,1,0,
07.02 17:09:38:589,656,-0.08373,-0.16660,9.79216,-647408939108925440.00000,0.00000,-24685744208244365821214720.00000,0.29119,-0.06331,-0.56524,-0.96726,100.56184,0.40922,0.63897,-0.00814,-0.00421,0.76917,0.00000,0.00000,0.00000,0.00000,1,0,
07.02 17:09:38:598,657,-0.06124,-0.15295,9.83443,-647408939108925440.00000,0.00000,-24685744208244365821214720.00000,0.29317,-0.06282,-0.56423,-0.96665,100.55495,0.40712,0.63902,-0.00812,-0.00422,0.76914,0.00000,0.00000,0.00000,0.00000,1,0,
07.02 17:09:38:609,658,-0.04912,-0.13901,9.79483,-647408939108925440.00000,0.00000,-24685744208244365821214720.00000,0.29267,-0.06631,-0.56474,-0.96592,100.54687,0.40777,0.63907,-0.00812,-0.00421,0.76909,0.00000,0.00000,0.00000,0.00000,1,0,
07.02 17:09:38:619,659,-0.05199,-0.18177,9.80408,-647408939108925440.00000,0.00000,-24685744208244365821214720.00000,0.29119,-0.06380,-0.56574,-0.96628,100.54044,0.40847,0.63912,-0.00813,-0.00421,0.76905,0.00000,0.00000,0.00000,0.00000,1,0,
07.02 17:09:38:629,660,-0.06248,-0.17698,9.83322,-647408939108925440.00000,0.00000,-24685744208244365821214720.00000,0.29415,-0.06386,-0.56223,-0.96456,100.54022,0.40759,0.63912,-0.00812,-0.00420,0.76905,0.00000,0.00000,0.00000,0.00000,1,0,
07.02 17:09:38:639,661,-0.06226,-0.15446,9.81288,-647408939108925440.00000,0.00000,-24685744208244365821214720.00000,0.29367,-0.06280,-0.56522,-0.96465,100.54546,0.40899,0.63908,-0.00813,-0.00419,0.76908,0.00000,0.00000,0.00000,0.00000,1,0,
07.02 17:09:38:649,662,-0.08411,-0.16103,9.77900,-647408939108925440.00000,0.00000,-24685744208244365821214720.00000,0.29368,-0.06426,-0.56721,-0.96457,100.55116,0.41056,0.63905,-0.00814,-0.00418,0.76911,0.00000,0.00000,0.00000,0.00000,1,0,
07.02 17:09:38:658,663,-0.06244,-0.16444,9.82983,-647408939108925440.00000,0.00000,-24685744208244365821214720.00000,0.29218,-0.06281,-0.56523,-0.96479,100.54986,0.40990,0.63905,-0.00813,-0.00419,0.76911,0.00000,0.00000,0.00000,0.00000,1,0,
07.02 17:09:38:669,664,-0.04472,-0.19520,9.80194,-647408939108925440.00000,0.00000,-24685744208244365821214720.00000,0.29219,-0.06627,-0.56674,-0.96594,100.55225,0.40924,0.63904,-0.00813,-0.00420,0.76912,0.00000,0.00000,0.00000,0.00000,1,0,
07.02 17:09:38:679,665,-0.08889,-0.18885,9.79614,-647408939108925440.00000,0.00000,-24685744208244365821214720.00000,0.29317,-0.06480,-0.56523,-0.96573,100.55924,0.41106,0.63899,-0.00814,-0.00419,0.76916,0.00000,0.00000,0.00000,0.00000,1,0,
07.02 17:09:38:689,666,-0.06800,-0.16043,9.79960,-647408939108925440.00000,0.00000,-24685744208244365821214720.00000,0.29218,-0.06481,-0.56474,-0.96474,100.55858,0.41191,0.63900,-0.00814,-0.00418,0.76916,0.00000,0.00000,0.00000,0.00000,1,0,
07.02 17:09:38:699,667,-0.05291,-0.16830,9.82597,-647408939108925440.00000,0.00000,-24685744208244365821214720.00000,0.29118,-0.06332,-0.56474,-0.96445,100.55761,0.41211,0.63900,-0.00814,-0.00418,0.76915,0.00000,0.00000,0.00000,0.00000,1,0,
07.02 17:09:38:710,668,-0.06792,-0.17305,9.79331,-647408939108925440.00000,0.00000,-24685744208244365821214720.00000,0.29219,-0.06377,-0.56722,-0.96537,100.55045,0.41224,0.63905,-0.00815,-0.00418,0.76911,0.00000,0.00000,0.00000,0.00000,1,0,
07.02 17:09:38:719,669,-0.07498,-0.17617,9.82232,-647408939108925440.00000,0.00000,-24685744208244365821214720.00000,0.29268,-0.06577,-0.56673,-0.96529,100.56076,0.41329,0.63898,-0.00816,-0.00417,0.76917,0.00000,0.00000,0.00000,0.00000,1,0,
07.02 17:09:38:729,670,-0.03960,-0.15979,9.80833,-647408939108925440.00000,0.00000,-24685744208244365821214720.00000,0.29268,-0.06330,-0.56523,-0.96489,100.56062,0.41289,0.63898,-0.00815,-0.00417,0.76917,0.00000,0.00000,0.00000,0.00000,1,0,
07.02 17:09:38:738,671,-0.07903,-0.15217,9.81419,-647408939108925440.00000,0.00000,-24685744208244365821214720.00000,0.29319,-0.06372,-0.56921,-0.96707,100.55553,0.41383,0.63902,-0.00817,-0.00418,0.76914,0.00000,0.00000,0.00000,0.00000,1,0,
07.02 17:09:38:749,672,-0.10689,-0.16832,9.78026,-647408939108925440.00000,0.00000,-24685744208244365821214720.00000,0.29170,-0.06376,-0.56773,-0.96725,100.55616,0.41437,0.63901,-0.00818,-0.00418,0.76914,0.00000,0.00000,0.00000,0.00000,1,0,
07.02 17:09:38:759,673,-0.07221,-0.16509,9.83520,-647408939108925440.00000,0.00000,-24685744208244365821214720.00000,0.29318,-0.06527,-0.56672,-0.96810,100.56274,0.41336,0.63897,-0.00817,-0.00419,0.76918,0.00000,0.00000,0.00000,0.00000,1,0,
07.02 17:09:38:769,674,-0.04788,-0.17897,9.79047,-647408939108925440.00000,0.00000,-24685744208244365821214720.00000,0.29220,-0.06524,-0.56823,-0.96781,100.56066,0.41318,0.63898,-0.00817,-0.00419,0.76917,0.00000,0.00000,0.00000,0.00000,1,0,
07.02 17:09:38:779,675,-0.05956,-0.16670,9.80077,-647408939108925440.00000,0.00000,-24685744208244365821214720.00000,0.29268,-0.06528,-0.56623,-0.96763,100.56699,0.41426,0.63894,-0.00818,-0.00419,0.76920,0.00000,0.00000,0.00000,0.00000,1,0,
07.02 17:09:38:790,676,-0.05510,-0.16086,9.82568,-647408939108925440.00000,0.00000,-24685744208244365821214720.00000,0.29218,-0.06480,-0.56524,-0.96776,100.56770,0.41287,0.63893,-0.00817,-0.00419,0.76921,0.00000,0.00000,0.00000,0.00000,1,0,
07.02 17:09:38:798,677,-0.04695,-0.16389,9.80422,-647408939108925440.00000,0.00000,-24685744208244365821214720.00000,0.29418,-0.06425,-0.56771,-0.96874,100.56578,0.41341,0.63895,-0.00818,-0.00420,0.76920,0.00000,0.00000,0.00000,0.00000,1,0,
07.02 17:09:38:808,678,-0.07760,-0.17901,9.81574,-647408939108925440.00000,0.00000,-24685744208244365821214720.00000,0.29168,-0.06483,-0.56425,-0.96829,100.56542,0.41408,0.63895,-0.00818,-0.00419,0.76919,0.00000,0.00000,0.00000,0.00000,1,0,
07.02 17:09:38:818,679,-0.05260,-0.17452,9.80873,-647408939108925440.00000,0.00000,-24685744208244365821214720.00000,0.29268,-0.06427,-0.56672,-0.96673,100.56651,0.41559,0.63894,-0.00818,-0.00417,0.76920,0.00000,0.00000,0.00000,0.00000,1,0,
07.02 17:09:38:828,680,-0.07068,-0.15988,9.81574,-647408939108925440.00000,0.00000,-24685744208244365821214720.00000,0.29268,-0.06479,-0.56573,-0.96757,100.56751,0.41654,0.63894,-0.00819,-0.00417,0.76921,0.00000,0.00000,0.00000,0.00000,1,0,
07.02 17:09:38:839,681,-0.06891,-0.16130,9.78246,-647408939108925440.00000,0.00000,-24685744208244365821214720.00000,0.29219,-0.06276,-0.56772,-0.96932,100.56874,0.41792,0.63893,-0.00821,-0.00418,0.76921,0.00000,0.00000,0.00000,0.00000,1,0,
07.02 17:09:38:849,682,-0.07390,-0.18548,9.83899,-647408939108925440.00000,0.00000,-24685744208244365821214720.00000,0.29367,-0.06381,-0.56472,-0.97018,100.57832,0.41760,0.63886,-0.00821,-0.00418,0.76927,0.00000,0.00000,0.00000,0.00000,1,0,
07.02 17:09:38:859,683,-0.06792,-0.18599,9.79972,-647408939108925440.00000,0.00000,-24685744208244365821214720.00000,0.29218,-0.06379,-0.56623,-0.97111,100.57706,0.41706,0.63887,-0.00821,-0.00419,0.76926,0.00000,0.00000,0.00000,0.00000,1,0,
07.02 17:09:38:869,684,-0.06223,-0.15893,9.81362,-647408939108925440.00000,0.00000,-24685744208244365821214720.00000,0.29170,-0.06575,-0.56773,-0.97056,100.58018,0.41684,0.63885,-0.00821,-0.00419,0.76928,0.00000,0.00000,0.00000,0.00000,1,0,
07.02 17:09:38:878,685,-0.06774,-0.15610,9.80117,-647408939108925440.00000,0.00000,-24685744208244365821214720.00000,0.29218,-0.06381,-0.56523,-0.97082,100.57756,0.41631,0.63887,-0.00821,-0.00420,0.76926,0.00000,0.00000,0.00000,0.00000,1,0,
07.02 17:09:38:888,686,-0.05506,-0.14657,9.80840,-647408939108925440.00000,0.00000,-24685744208244365821214720.00000,0.29368,-0.06426,-0.56721,-0.97018,100.57875,0.41576,0.63886,-0.00820,-0.00419,0.76927,0.00000,0.00000,0.00000,0.00000,1,0,
07.02 17:09:38:898,687,-0.07771,-0.16729,9.77499,-647408939108925440.00000,0.00000,-24685744208244365821214720.00000,0.29120,-0.06628,-0.56674,-0.97189,100.57831,0.41620,0.63886,-0.00821,-0.00420,0.76927,0.00000,0.00000,0.00000,0.00000,1,0,
07.02 17:09:38:909,688,-0.05074,-0.17460,9.83763,-647408939108925440.00000,0.00000,-24685744208244365821214720.00000,0.29219,-0.06526,-0.56723,-0.97290,100.59908,0.41599,0.63872,-0.00822,-0.00421,0.76938,0.00000,0.00000,0.00000,0.00000,1,0,
07.02 17:09:38:919,689,-0.03438,-0.18289,9.78477,-647408939108925440.00000,0.00000,-24685744208244365821214720.00000,0.29167,-0.06284,-0.56374,-0.97148,100.59636,0.41474,0.63874,-0.00820,-0.00421,0.76937,0.00000,0.00000,0.00000,0.00000,1,0,
07.02 17:09:38:929,690,-0.06694,-0.15980,9.81355,-647408939108925440.00000,0.00000,-24685744208244365821214720.00000,0.29366,-0.06333,-0.56373,-0.97270,100.60286,0.41577,0.63870,-0.00821,-0.00421,0.76940,0.00000,0.00000,0.00000,0.00000,1,0,
07.02 17:09:38:940,691,-0.07086,-0.16433,9.79648,-647408939108925440.00000,0.00000,-24685744208244365821214720.00000,0.29168,-0.06431,-0.56524,-0.97410,100.60266,0.41690,0.63870,-0.00823,-0.00422,0.76940,0.00000,0.00000,0.00000,0.00000,1,0,
07.02 17:09:38:949,692,-0.06834,-0.15086,9.84106,-647408939108925440.00000,0.00000,-24685744208244365821214720.00000,0.29218,-0.06580,-0.56524,-0.97391,100.59907,0.41814,0.63872,-0.00824,-0.00421,0.76938,0.00000,0.00000,0.00000,0.00000,1,0,
07.02 17:09:38:958,693,-0.07739,-0.17375,9.79822,-647408939108925440.00000,0.00000,-24685744208244365821214720.00000,0.29268,-0.06279,-0.56622,-0.97302,100.59705,0.41859,0.63874,-0.00823,-0.00420,0.76937,0.00000,0.00000,0.00000,0.00000,1,0,
07.02 17:09:38:968,694,-0.07928,-0.16748,9.80668,-647408939108925440.00000,0.00000,-24685744208244365821214720.00000,0.29367,-0.06629,-0.56573,-0.97344,100.61035,0.41801,0.63865,-0.00823,-0.00421,0.76944,0.00000,0.00000,0.00000,0.00000,1,0,
07.02 17:09:38:978,695,-0.04173,-0.18327,9.80985,-647408939108925440.00000,0.00000,-24685744208244365821214720.00000,0.29466,-0.06379,-0.56571,-0.97388,100.61463,0.41707,0.63862,-0.00823,-0.00422,0.76947,0.00000,0.00000,0.00000,0.00000,1,0,
07.02 17:09:38:989,696,-0.04841,-0.18775,9.79156,-647408939108925440.00000,0.00000,-24685744208244365821214720.00000,0.29269,-0.06176,-0.56771,-0.97408,100.61047,0.41598,0.63865,-0.00822,-0.00422,0.76944,0.00000,0.00000,0.00000,0.00000,1,0,
07.02 17:09:38:999,697,-0.05627,-0.20332,9.82464,-647408939108925440.00000,0.00000,-24685744208244365821214720.00000,0.29268,-0.06330,-0.56523,-0.97315,100.61932,0.41660,0.63859,-0.00822,-0.00421,0.76949,0.00000,0.00000,0.00000,0.00000,1,0,
07.02 17:09:39:009,698,-0.08037,-0.18209,9.81746,-647408939108925440.00000,0.00000,-24685744208244365821214720.00000,0.29318,-0.06277,-0.56672,-0.97186,100.62077,0.41617,0.63858,-0.00821,-0.00421,0.76950,0.00000,0.00000,0.00000,0.00000,1,0,
07.02 17:09:39:019,699,-0.07734,-0.15067,9.82292,-647408939108925440.00000,0.00000,-24685744208244365821214720.00000,0.29268,-0.06478,-0.56623,-0.96988,100.60655,0.41647,0.63867,-0.00820,-0.00419,0.76942,0.00000,0.00000,0.00000,0.00000,1,0,
07.02 17:09:39:029,700,-0.06698,-0.16461,9.78784,-647408939108925440.00000,0.00000,-24685744208244365821214720.00000,0.29417,-0.06176,-0.56720,-0.97014,100.60537,0.41638,0.63868,-0.00820,-0.00419,0.76942,0.00000,0.00000,0.00000,0.00000,1,0,
07.02 17:09:39:037,701,-0.06692,-0.17516,9.82866,-647408939108925440.00000,0.00000,-24685744208244365821214720.00000,0.28920,-0.06330,-0.56575,-0.97123,100.61826,0.41612,0.63859,-0.00821,-0.00420,0.76949,0.00000,0.00000,0.00000,0.00000,1,0,
07.02 17:09:39:048,702,-0.05909,-0.16497,9.81164,-647408939108925440.00000,0.00000,-24685744208244365821214720.00000,0.29367,-0.06380,-0.56522,-0.97123,100.62376,0.41520,0.63856,-0.00820,-0.00421,0.76952,0.00000,0.00000,0.00000,0.00000,1,0,
07.02 17:09:39:059,703,-0.05677,-0.13671,9.82585,-647408939108925440.00000,0.00000,-24685744208244365821214720.00000,0.29218,-0.06281,-0.56523,-0.96984,100.62142,0.41643,0.63857,-0.00820,-0.00419,0.76951,0.00000,0.00000,0.00000,0.00000,1,0,
07.02 17:09:39:071,704,-0.05234,-0.16416,9.78899,-647408939108925440.00000,0.00000,-24685744208244365821214720.00000,0.29417,-0.06527,-0.56672,-0.96872,100.62175,0.41521,0.63857,-0.00819,-0.00419,0.76951,0.00000,0.00000,0.00000,0.00000,1,0,
07.02 17:09:39:080,705,-0.06827,-0.13407,9.80883,-647408939108925440.00000,0.00000,-24685744208244365821214720.00000,0.29268,-0.06327,-0.56672,-0.96945,100.62494,0.41579,0.63855,-0.00819,-0.00419,0.76953,0.00000,0.00000,0.00000,0.00000,1,0,
07.02 17:09:39:089,706,-0.05643,-0.17419,9.81329,-647408939108925440.00000,0.00000,-24685744208244365821214720.00000,0.29318,-0.06328,-0.56622,-0.97085,100.62249,0.41613,0.63857,-0.00820,-0.00420,0.76951,0.00000,0.00000,0.00000,0.00000,1,0,
07.02 17:09:39:099,707,-0.09929,-0.15612,9.80659,-647408939108925440.00000,0.00000,-24685744208244365821214720.00000,0.29219,-0.06277,-0.56722,-0.97220,100.61280,0.41746,0.63863,-0.00822,-0.00420,0.76946,0.00000,0.00000,0.00000,0.00000,1,0,
07.02 17:09:39:108,708,-0.09104,-0.16770,9.82514,-647408939108925440.00000,0.00000,-24685744208244365821214720.00000,0.29368,-0.06427,-0.56672,-0.97291,100.61840,0.41727,0.63859,-0.00822,-0.00421,0.76949,0.00000,0.00000,0.00000,0.00000,1,0,
07.02 17:09:39:119,709,-0.07424,-0.17696,9.80272,-647408939108925440.00000,0.00000,-24685744208244365821214720.00000,0.29467,-0.06627,-0.56672,-0.97335,100.62207,0.41723,0.63857,-0.00823,-0.00421,0.76951,0.00000,0.00000,0.00000,0.00000,1,0,
07.02 17:09:39:128,710,-0.07307,-0.17728,9.79936,-647408939108925440.00000,0.00000,-24685744208244365821214720.00000,0.29517,-0.06674,-0.56771,-0.97469,100.62187,0.41733,0.63857,-0.00823,-0.00422,0.76951,0.00000,0.00000,0.00000,0.00000,1,0,
07.02 17:09:39:139,711,-0.04175,-0.18202,9.81796,-647408939108925440.00000,0.00000,-24685744208244365821214720.00000,0.29219,-0.06675,-0.56773,-0.97472,100.61578,0.41670,0.63861,-0.00823,-0.00422,0.76947,0.00000,0.00000,0.00000,0.00000,1,0,
07.02 17:09:39:149,712,-0.05736,-0.17212,9.79965,-647408939108925440.00000,0.00000,-24685744208244365821214720.00000,0.29267,-0.06284,-0.56373,-0.97301,100.61456,0.41717,0.63862,-0.00822,-0.00421,0.76947,0.00000,0.00000,0.00000,0.00000,1,0,
07.02 17:09:39:159,713,-0.07728,-0.14647,9.80098,-647408939108925440.00000,0.00000,-24685744208244365821214720.00000,0.29168,-0.06232,-0.56474,-0.97353,100.61477,0.41849,0.63862,-0.00824,-0.00420,0.76947,0.00000,0.00000,0.00000,0.00000,1,0,
07.02 17:09:39:169,714,-0.07801,-0.16245,9.82814,-647408939108925440.00000,0.00000,-24685744208244365821214720.00000,0.29417,-0.06579,-0.56572,-0.97196,100.62566,0.41796,0.63854,-0.00822,-0.00420,0.76953,0.00000,0.00000,0.00000,0.00000,1,0,
07.02 17:09:39:179,715,-0.06393,-0.15914,9.80599,-647408939108925440.00000,0.00000,-24685744208244365821214720.00000,0.29267,-0.06583,-0.56374,-0.97191,100.62241,0.41737,0.63857,-0.00822,-0.00420,0.76951,0.00000,0.00000,0.00000,0.00000,1,0,
07.02 17:09:39:188,716,-0.09045,-0.15719,9.81579,-647408939108925440.00000,0.00000,-24685744208244365821214720.00000,0.29218,-0.06130,-0.56572,-0.97106,100.62889,0.41721,0.63852,-0.00821,-0.00420,0.76955,0.00000,0.00000,0.00000,0.00000,1,0,
07.02 17:09:39:200,717,-0.05235,-0.15811,9.81830,-647408939108925440.00000,0.00000,-24685744208244365821214720.00000,0.29466,-0.06679,-0.56572,-0.96994,100.62371,0.41701,0.63856,-0.00821,-0.00419,0.76952,0.00000,0.00000,0.00000,0.00000,1,0,
07.02 17:09:39:209,718,-0.04980,-0.16044,9.79395,-647408939108925440.00000,0.00000,-24685744208244365821214720.00000,0.29170,-0.06276,-0.56772,-0.96945,100.62682,0.41750,0.63854,-0.00821,-0.00418,0.76954,0.00000,0.00000,0.00000,0.00000,1,0,
07.02 17:09:39:220,719,-0.07960,-0.17171,9.83193,-647408939108925440.00000,0.00000,-24685744208244365821214720.00000,0.29169,-0.06379,-0.56623,-0.97002,100.61815,0.41893,0.63859,-0.00822,-0.00418,0.76949,0.00000,0.00000,0.00000,0.00000,1,0,
07.02 17:09:39:230,720,-0.06899,-0.17462,9.82130,-647408939108925440.00000,0.00000,-24685744208244365821214720.00000,0.29267,-0.06483,-0.56374,-0.97138,100.61699,0.41846,0.63860,-0.00822,-0.00419,0.76948,0.00000,0.00000,0.00000,0.00000,1,0,
07.02 17:09:39:240,721,-0.05641,-0.17319,9.81395,-647408939108925440.00000,0.00000,-24685744208244365821214720.00000,0.29268,-0.06278,-0.56672,-0.97240,100.61572,0.41783,0.63861,-0.00823,-0.00420,0.76947,0.00000,0.00000,0.00000,0.00000,1,0,
07.02 17:09:39:249,722,-0.07903,-0.16635,9.80694,-647408939108925440.00000,0.00000,-24685744208244365821214720.00000,0.29168,-0.06431,-0.56524,-0.97312,100.60969,0.41755,0.63865,-0.00823,-0.00421,0.76944,0.00000,0.00000,0.00000,0.00000,1,0,
07.02 17:09:39:259,723,-0.05186,-0.16009,9.81043,-647408939108925440.00000,0.00000,-24685744208244365821214720.00000,0.29417,-0.06176,-0.56720,-0.97358,100.60674,0.41712,0.63867,-0.00823,-0.00421,0.76942,0.00000,0.00000,0.00000,0.00000,1,0,
07.02 17:09:39:268,724,-0.06101,-0.17313,9.81722,-647408939108925440.00000,0.00000,-24685744208244365821214720.00000,0.29269,-0.06475,-0.56772,-0.97323,100.61797,0.41769,0.63860,-0.00823,-0.00421,0.76949,0.00000,0.00000,0.00000,0.00000,1,0,
07.02 17:09:39:278,725,-0.07152,-0.18092,9.82890,-647408939108925440.00000,0.00000,-24685744208244365821214720.00000,0.29268,-0.06628,-0.56623,-0.97481,100.61747,0.41800,0.63860,-0.00824,-0.00422,0.76948,0.00000,0.00000,0.00000,0.00000,1,0,
07.02 17:09:39:288,726,-0.04236,-0.16778,9.78615,-647408939108925440.00000,0.00000,-24685744208244365821214720.00000,0.29268,-0.06428,-0.56623,-0.97424,100.60908,0.41725,0.63866,-0.00823,-0.00422,0.76944,0.00000,0.00000,0.00000,0.00000,1,0,
07.02 17:09:39:300,727,-0.04207,-0.15287,9.81851,-647408939108925440.00000,0.00000,-24685744208244365821214720.00000,0.29218,-0.06428,-0.56623,-0.97504,100.61001,0.41754,0.63865,-0.00824,-0.00422,0.76944,0.00000,0.00000,0.00000,0.00000,1,0,
07.02 17:09:39:309,728,-0.06413,-0.16261,9.80258,-647408939108925440.00000,0.00000,-24685744208244365821214720.00000,0.29168,-0.06180,-0.56573,-0.97585,100.61446,0.41829,0.63862,-0.00825,-0.00422,0.76947,0.00000,0.00000,0.00000,0.00000,1,0,
07.02 17:09:39:319,729,-0.08488,-0.18539,9.83999,-647408939108925440.00000,0.00000,-24685744208244365821214720.00000,0.29467,-0.06328,-0.56621,-0.97585,100.62510,0.41902,0.63855,-0.00825,-0.00422,0.76953,0.00000,0.00000,0.00000,0.00000,1,0,
07.02 17:09:39:329,730,-0.07425,-0.15100,9.80802,-647408939108925440.00000,0.00000,-24685744208244365821214720.00000,0.29317,-0.06329,-0.56572,-0.97684,100.61185,0.41989,0.63864,-0.00826,-0.00422,0.76945,0.00000,0.00000,0.00000,0.00000,1,0,
07.02 17:09:39:339,731,-0.07607,-0.18433,9.82392,-647408939108925440.00000,0.00000,-24685744208244365821214720.00000,0.29119,-0.06380,-0.56574,-0.97681,100.60461,0.41936,0.63869,-0.00826,-0.00422,0.76941,0.00000,0.00000,0.00000,0.00000,1,0,
07.02 17:09:39:348,732,-0.05371,-0.15267,9.78542,-647408939108925440.00000,0.00000,-24685744208244365821214720.00000,0.29019,-0.06383,-0.56425,-0.97722,100.60438,0.41748,0.63869,-0.00825,-0.00423,0.76941,0.00000,0.00000,0.00000,0.00000,1,0,
07.02 17:09:39:358,733,-0.05805,-0.17615,9.82869,-647408939108925440.00000,0.00000,-24685744208244365821214720.00000,0.29268,-0.06529,-0.56573,-0.97758,100.59874,0.41688,0.63872,-0.00825,-0.00424,0.76938,0.00000,0.00000,0.00000,0.00000,1,0,
07.02 17:09:39:368,734,-0.06156,-0.19762,9.79588,-647408939108925440.00000,0.00000,-24685744208244365821214720.00000,0.29615,-0.06329,-0.56520,-0.97818,100.59975,0.41663,0.63872,-0.00825,-0.00425,0.76938,0.00000,0.00000,0.00000,0.00000,1,0,
07.02 17:09:39:379,735,-0.07355,-0.16643,9.79433,-647408939108925440.00000,0.00000,-24685744208244365821214720.00000,0.29566,-0.06326,-0.56719,-0.97750,100.59820,0.41725,0.63873,-0.00825,-0.00424,0.76938,0.00000,0.00000,0.00000,0.00000,1,0,
07.02 17:09:39:389,736,-0.06951,-0.15628,9.82020,-647408939108925440.00000,0.00000,-24685744208244365821214720.00000,0.29220,-0.06373,-0.56922,-0.97646,100.59875,0.41681,0.63872,-0.00824,-0.00423,0.76938,0.00000,0.00000,0.00000,0.00000,1,0,
07.02 17:09:39:399,737,-0.06350,-0.15613,9.79929,-647408939108925440.00000,0.00000,-24685744208244365821214720.00000,0.29416,-0.06582,-0.56423,-0.97574,100.59644,0.41607,0.63874,-0.00823,-0.00423,0.76937,0.00000,0.00000,0.00000,0.00000,1,0,
07.02 17:09:39:409,738,-0.06271,-0.17787,9.81052,-647408939108925440.00000,0.00000,-24685744208244365821214720.00000,0.29170,-0.06326,-0.56772,-0.97597,100.60302,0.41705,0.63870,-0.00824,-0.00423,0.76940,0.00000,0.00000,0.00000,0.00000,1,0,
07.02 17:09:39:419,739,-0.05650,-0.18001,9.82950,-647408939108925440.00000,0.00000,-24685744208244365821214720.00000,0.29269,-0.06373,-0.56871,-0.97581,100.59743,0.41732,0.63873,-0.00824,-0.00423,0.76937,0.00000,0.00000,0.00000,0.00000,1,0,
07.02 17:09:39:428,740,-0.07067,-0.16510,9.82416,-647408939108925440.00000,0.00000,-24685744208244365821214720.00000,0.29268,-0.06477,-0.56673,-0.97613,100.59760,0.41668,0.63873,-0.00824,-0.00423,0.76937,0.00000,0.00000,0.00000,0.00000,1,0,
07.02 17:09:39:438,741,-0.04535,-0.15223,9.76388,-647408939108925440.00000,0.00000,-24685744208244365821214720.00000,0.29269,-0.06326,-0.56722,-0.97599,100.59247,0.41623,0.63877,-0.00824,-0.00423,0.76934,0.00000,0.00000,0.00000,0.00000,1,0,
07.02 17:09:39:449,742,-0.08310,-0.17408,9.83687,-647408939108925440.00000,0.00000,-24685744208244365821214720.00000,0.29416,-0.06532,-0.56423,-0.97655,100.58951,0.41613,0.63879,-0.00824,-0.00424,0.76933,0.00000,0.00000,0.00000,0.00000,1,0,
07.02 17:09:39:460,743,-0.07031,-0.19441,9.85322,-647408939108925440.00000,0.00000,-24685744208244365821214720.00000,0.29120,-0.06177,-0.56723,-0.97686,100.58578,0.41502,0.63881,-0.00823,-0.00424,0.76931,0.00000,0.00000,0.00000,0.00000,1,0,
07.02 17:09:39:469,744,-0.09678,-0.15223,9.75740,-647408939108925440.00000,0.00000,-24685744208244365821214720.00000,0.29268,-0.06278,-0.56672,-0.97592,100.59434,0.41699,0.63875,-0.00824,-0.00423,0.76935,0.00000,0.00000,0.00000,0.00000,1,0,
07.02 17:09:39:479,745,-0.08803,-0.15647,9.80468,-647408939108925440.00000,0.00000,-24685744208244365821214720.00000,0.29218,-0.06681,-0.56475,-0.97719,100.59635,0.41645,0.63874,-0.00824,-0.00424,0.76937,0.00000,0.00000,0.00000,0.00000,1,0,
07.02 17:09:39:489,746,-0.01946,-0.13578,9.83961,-647408939108925440.00000,0.00000,-24685744208244365821214720.00000,0.29219,-0.06277,-0.56722,-0.97756,100.59955,0.41465,0.63872,-0.00823,-0.00425,0.76938,0.00000,0.00000,0.00000,0.00000,1,0,
07.02 17:09:39:499,747,-0.03493,-0.17967,9.77910,-647408939108925440.00000,0.00000,-24685744208244365821214720.00000,0.29119,-0.06431,-0.56524,-0.97842,100.59585,0.41481,0.63874,-0.00824,-0.00426,0.76936,0.00000,0.00000,0.00000,0.00000,1,0,
07.02 17:09:39:508,748,-0.09967,-0.16479,9.79679,-647408939108925440.00000,0.00000,-24685744208244365821214720.00000,0.29367,-0.06431,-0.56473,-0.97927,100.60477,0.41627,0.63868,-0.00825,-0.00426,0.76941,0.00000,0.00000,0.00000,0.00000,1,0,
07.02 17:09:39:518,749,-0.01715,-0.15870,9.89382,-647408939108925440.00000,0.00000,-24685744208244365821214720.00000,0.29318,-0.06328,-0.56622,-0.97793,100.60863,0.41421,0.63866,-0.00823,-0.00426,0.76943,0.00000,0.00000,0.00000,0.00000,1,0,
07.02 17:09:39:529,750,-0.03279,-0.10741,9.68254,-647408939108925440.00000,0.00000,-24685744208244365821214720.00000,0.29318,-0.06425,-0.56772,-0.97845,100.60336,0.41603,0.63869,-0.00825,-0.00425,0.76941,0.00000,0.00000,0.00000,0.00000,1,0,
07.02 17:09:39:540,751,-0.12773,-0.20250,9.87962,-647408939108925440.00000,0.00000,-24685744208244365821214720.00000,0.29267,-0.06381,-0.56473,-0.98058,100.60391,0.41866,0.63869,-0.00828,-0.00425,0.76941,0.00000,0.00000,0.00000,0.00000,1,0,
07.02 17:09:39:549,752,-0.04460,-0.12966,9.75168,-647408939108925440.00000,0.00000,-24685744208244365821214720.00000,0.29020,-0.06228,-0.56674,-0.97909,100.60437,0.41609,0.63869,-0.00825,-0.00425,0.76941,0.00000,0.00000,0.00000,0.00000,1,0,
07.02 17:09:39:558,753,-0.06899,-0.15258,9.89294,-647408939108925440.00000,0.00000,-24685744208244365821214720.00000,0.29616,-0.06225,-0.56769,-0.97881,100.60529,0.41792,0.63868,-0.00826,-0.00424,0.76942,0.00000,0.00000,0.00000,0.00000,1,0,
07.02 17:09:39:568,754,-0.09978,-0.15541,9.71348,-647408939108925440.00000,0.00000,-24685744208244365821214720.00000,0.29268,-0.06330,-0.56523,-0.98003,100.60368,0.41871,0.63869,-0.00827,-0.00425,0.76941,0.00000,0.00000,0.00000,0.00000,1,0,
07.02 17:09:39:578,755,-0.05128,-0.15987,9.86550,-647408939108925440.00000,0.00000,-24685744208244365821214720.00000,0.29367,-0.06478,-0.56622,-0.98137,100.59993,0.41671,0.63872,-0.00827,-0.00427,0.76939,0.00000,0.00000,0.00000,0.00000,1,0,
07.02 17:09:39:588,756,-0.02487,-0.16322,9.77180,-647408939108925440.00000,0.00000,-24685744208244365821214720.00000,0.29417,-0.06379,-0.56572,-0.98142,100.59972,0.41489,0.63872,-0.00826,-0.00428,0.76938,0.00000,0.00000,0.00000,0.00000,1,0,
