Time,Counter,ax,ay,az,gx,gy,gz,mx,my,mz,roll,yaw,pitch,q0,q1,q2,q3,debug0,debug1,debug2,debug3,Rest,Mag Disturbance,
07.10 14:18:39:670,7968,-0.01615,-0.02413,9.79033,0.00000,0.00000,-0.00000,-0.17184,0.35184,-0.68841,-0.28935,-36.52119,0.19671,0.94964,-0.00186,0.00242,-0.31333,0.00000,0.00000,0.00000,0.00000,1,0,
07.10 14:18:39:671,7969,-0.01736,-0.04359,9.80220,0.00000,0.00000,-0.00000,-0.17330,0.35094,-0.69340,-0.29010,-36.52046,0.19629,0.94964,-0.00187,0.00242,-0.31333,0.00000,0.00000,0.00000,0.00000,1,0,
07.10 14:18:39:671,7970,-0.02650,-0.04696,9.81274,0.00000,0.00000,-0.00000,-0.17235,0.34977,-0.68494,-0.28968,-36.52092,0.19591,0.94964,-0.00186,0.00242,-0.31333,0.00000,0.00000,0.00000,0.00000,1,0,
07.10 14:18:39:683,7971,-0.02206,-0.01139,9.80160,0.00000,0.00000,-0.00000,-0.17185,0.34928,-0.68544,-0.29197,-36.52089,0.19596,0.94964,-0.00188,0.00242,-0.31333,0.00000,0.00000,0.00000,0.00000,1,0,
07.10 14:18:39:684,7972,-0.03117,-0.02959,9.80773,0.00000,0.00000,-0.00000,-0.17184,0.34832,-0.68743,-0.29035,-36.52069,0.19547,0.94964,-0.00187,0.00241,-0.31333,0.00000,0.00000,0.00000,0.00000,1,0,
07.10 14:18:39:684,7973,-0.03037,-0.03840,9.79998,0.00000,0.00000,-0.00000,-0.17032,0.35046,-0.69388,-0.29167,-36.52085,0.19565,0.94964,-0.00188,0.00242,-0.31333,0.00000,0.00000,0.00000,0.00000,1,0,
07.10 14:18:39:685,7974,-0.01569,-0.03315,9.79226,-0.00000,0.00000,-0.00000,-0.17135,0.34782,-0.68693,-0.29234,-36.52120,0.19492,0.94964,-0.00189,0.00241,-0.31333,0.00000,0.00000,0.00000,0.00000,1,0,
07.10 14:18:39:685,7975,-0.02447,-0.04233,9.79350,-0.00000,0.00000,-0.00000,-0.17034,0.34887,-0.68941,-0.29227,-36.52088,0.19628,0.94964,-0.00189,0.00243,-0.31333,0.00000,0.00000,0.00000,0.00000,1,0,
07.10 14:18:39:694,7976,-0.03243,-0.02697,9.79345,-0.00000,0.00000,-0.00000,-0.17035,0.34882,-0.68692,-0.29363,-36.51958,0.19523,0.94964,-0.00190,0.00242,-0.31332,0.00000,0.00000,0.00000,0.00000,1,0,
07.10 14:18:39:705,7977,-0.02120,-0.03556,9.80494,-0.00000,0.00000,-0.00000,-0.17383,0.35079,-0.68644,-0.29320,-36.51990,0.19622,0.94964,-0.00189,0.00243,-0.31332,0.00000,0.00000,0.00000,0.00000,1,0,
07.10 14:18:39:716,7978,-0.01706,-0.02861,9.79598,-0.00000,0.00000,-0.00000,-0.17035,0.34783,-0.68742,-0.29055,-36.52040,0.19576,0.94964,-0.00187,0.00242,-0.31333,0.00000,0.00000,0.00000,0.00000,1,0,
07.10 14:18:39:725,7979,-0.03161,-0.03286,9.78615,-0.00000,0.00000,-0.00000,-0.17233,0.34933,-0.68793,-0.29069,-36.52098,0.19580,0.94964,-0.00187,0.00242,-0.31333,0.00000,0.00000,0.00000,0.00000,1,0,
07.10 14:18:39:735,7980,-0.03803,-0.02084,9.77709,-0.00000,0.00000,-0.00000,-0.17284,0.34928,-0.68544,-0.29038,-36.52062,0.19700,0.94964,-0.00187,0.00243,-0.31333,0.00000,0.00000,0.00000,0.00000,1,0,
07.10 14:18:39:745,7981,-0.02564,-0.02308,9.79202,-0.00000,0.00000,-0.00000,-0.17086,0.34879,-0.68543,-0.29017,-36.52087,0.19710,0.94964,-0.00187,0.00243,-0.31333,0.00000,0.00000,0.00000,0.00000,1,0,
07.10 14:18:39:755,7982,-0.01439,-0.03964,9.80244,-0.00000,0.00000,-0.00000,-0.17284,0.34880,-0.68644,-0.28932,-36.52129,0.19532,0.94964,-0.00186,0.00241,-0.31333,0.00000,0.00000,0.00000,0.00000,1,0,
07.10 14:18:39:765,7983,-0.00881,-0.01931,9.80475,-0.00000,0.00000,-0.00000,-0.17133,0.34936,-0.68941,-0.28856,-36.52147,0.19536,0.94964,-0.00186,0.00241,-0.31334,0.00000,0.00000,0.00000,0.00000,1,0,
07.10 14:18:39:775,7984,-0.04055,-0.04226,9.80310,-0.00000,0.00000,-0.00000,-0.17082,0.34943,-0.69239,-0.28838,-36.52170,0.19415,0.94964,-0.00186,0.00240,-0.31334,0.00000,0.00000,0.00000,0.00000,1,0,
07.10 14:18:39:785,7985,-0.03342,-0.02070,9.80229,-0.00000,0.00000,-0.00000,-0.17233,0.35185,-0.68891,-0.28948,-36.52151,0.19315,0.94964,-0.00187,0.00239,-0.31334,0.00000,0.00000,0.00000,0.00000,1,0,
07.10 14:18:39:796,7986,-0.03328,-0.03242,9.78396,-0.00000,0.00000,-0.00000,-0.17137,0.34874,-0.68344,-0.28954,-36.52146,0.19350,0.94964,-0.00187,0.00240,-0.31334,0.00000,0.00000,0.00000,0.00000,1,0,
07.10 14:18:39:804,7987,-0.02285,-0.03250,9.80406,-0.00000,0.00000,-0.00000,-0.17185,0.35078,-0.68543,-0.28941,-36.52248,0.19352,0.94963,-0.00187,0.00240,-0.31334,0.00000,0.00000,0.00000,0.00000,1,0,
07.10 14:18:39:815,7988,-0.00706,-0.02918,9.79688,-0.00000,0.00000,-0.00000,-0.17233,0.34783,-0.68793,-0.28951,-36.52258,0.19387,0.94963,-0.00187,0.00240,-0.31335,0.00000,0.00000,0.00000,0.00000,1,0,
07.10 14:18:39:825,7989,-0.02705,-0.03486,9.79385,-0.00000,0.00000,-0.00000,-0.16886,0.34886,-0.68890,-0.29022,-36.52212,0.19345,0.94964,-0.00188,0.00240,-0.31334,0.00000,0.00000,0.00000,0.00000,1,0,
07.10 14:18:39:835,7990,-0.03441,-0.02798,9.80124,-0.00000,0.00000,-0.00000,-0.17134,0.34784,-0.68792,-0.28882,-36.52253,0.19431,0.94963,-0.00186,0.00240,-0.31335,0.00000,0.00000,0.00000,0.00000,1,0,
07.10 14:18:39:845,7991,-0.03370,-0.03378,9.78847,-0.00000,0.00000,-0.00000,-0.17330,0.34744,-0.69342,-0.28846,-36.52222,0.19410,0.94964,-0.00186,0.00240,-0.31334,0.00000,0.00000,0.00000,0.00000,1,0,
07.10 14:18:39:856,7992,-0.01513,-0.03804,9.79128,-0.00000,0.00000,-0.00000,-0.17184,0.34982,-0.68742,-0.28906,-36.52192,0.19392,0.94964,-0.00187,0.00240,-0.31334,0.00000,0.00000,0.00000,0.00000,1,0,
07.10 14:18:39:866,7993,-0.03510,-0.05563,9.79960,-0.00000,0.00000,-0.00000,-0.17086,0.35026,-0.68443,-0.28854,-36.52162,0.19363,0.94964,-0.00186,0.00239,-0.31334,0.00000,0.00000,0.00000,0.00000,1,0,
07.10 14:18:39:876,7994,-0.03545,-0.02934,9.80270,-0.00000,0.00000,-0.00000,-0.17181,0.35093,-0.69289,-0.28744,-36.52179,0.19339,0.94964,-0.00185,0.00239,-0.31334,0.00000,0.00000,0.00000,0.00000,1,0,
07.10 14:18:39:885,7995,-0.01898,-0.03490,9.79574,-0.00000,0.00000,-0.00000,-0.17035,0.35085,-0.68890,-0.28917,-36.52047,0.19319,0.94964,-0.00187,0.00239,-0.31333,0.00000,0.00000,0.00000,0.00000,1,0,
07.10 14:18:39:895,7996,-0.03163,-0.03903,9.79092,-0.00000,0.00000,-0.00000,-0.17086,0.34729,-0.68543,-0.28895,-36.52037,0.19337,0.94964,-0.00187,0.00239,-0.31333,0.00000,0.00000,0.00000,0.00000,1,0,
07.10 14:18:39:905,7997,-0.05162,-0.05547,9.79431,-0.00000,0.00000,-0.00000,-0.17334,0.34929,-0.68594,-0.28725,-36.52081,0.19354,0.94964,-0.00185,0.00239,-0.31333,0.00000,0.00000,0.00000,0.00000,1,0,
07.10 14:18:39:915,7998,-0.04266,-0.02595,9.80575,-0.00000,0.00000,-0.00000,-0.17330,0.35095,-0.69390,-0.28708,-36.52078,0.19385,0.94964,-0.00185,0.00239,-0.31333,0.00000,0.00000,0.00000,0.00000,1,0,
07.10 14:18:39:925,7999,-0.03272,-0.02949,9.78777,-0.00000,0.00000,-0.00000,-0.17332,0.34987,-0.68992,-0.28679,-36.52034,0.19331,0.94964,-0.00185,0.00239,-0.31333,0.00000,0.00000,0.00000,0.00000,1,0,
07.10 14:18:39:936,8000,-0.03910,-0.03365,9.80659,-0.00000,0.00000,-0.00000,-0.17233,0.35085,-0.68892,-0.28687,-36.51978,0.19289,0.94964,-0.00185,0.00238,-0.31332,0.00000,0.00000,0.00000,0.00000,1,0,
07.10 14:18:39:946,8001,-0.00178,-0.02922,9.80494,-0.00000,0.00000,-0.00000,-0.17184,0.34981,-0.68693,-0.28754,-36.51926,0.19270,0.94964,-0.00186,0.00238,-0.31332,0.00000,0.00000,0.00000,0.00000,1,0,
07.10 14:18:39:955,8002,-0.04014,-0.03228,9.80759,-0.00000,0.00000,-0.00000,-0.17231,0.35042,-0.69240,-0.28841,-36.51867,0.19321,0.94965,-0.00186,0.00239,-0.31331,0.00000,0.00000,0.00000,0.00000,1,0,
07.10 14:18:39:965,8003,-0.02211,-0.02932,9.80096,-0.00000,0.00000,-0.00000,-0.17033,0.35092,-0.69189,-0.28803,-36.51851,0.19317,0.94965,-0.00186,0.00239,-0.31331,0.00000,0.00000,0.00000,0.00000,1,0,
07.10 14:18:39:975,8004,-0.01866,-0.02335,9.80291,-0.00000,0.00000,-0.00000,-0.17134,0.34884,-0.68842,-0.28809,-36.51812,0.19279,0.94965,-0.00186,0.00239,-0.31331,0.00000,0.00000,0.00000,0.00000,1,0,
07.10 14:18:39:985,8005,-0.00969,-0.03536,9.78694,-0.00000,0.00000,-0.00000,-0.17085,0.34983,-0.68791,-0.28834,-36.51749,0.19338,0.94965,-0.00186,0.00239,-0.31330,0.00000,0.00000,0.00000,0.00000,1,0,
07.10 14:18:39:994,8006,-0.01836,-0.03543,9.80907,-0.00000,0.00000,-0.00000,-0.17283,0.35032,-0.68743,-0.28691,-36.51805,0.19351,0.94965,-0.00185,0.00239,-0.31331,0.00000,0.00000,0.00000,0.00000,1,0,
07.10 14:18:40:005,8007,-0.01272,-0.02979,9.81190,-0.00000,0.00000,-0.00000,-0.17184,0.34932,-0.68743,-0.28609,-36.51750,0.19306,0.94965,-0.00184,0.00238,-0.31330,0.00000,0.00000,0.00000,0.00000,1,0,
07.10 14:18:40:016,8008,-0.02683,-0.03127,9.79447,-0.00000,0.00000,-0.00000,-0.17333,0.34881,-0.68694,-0.28672,-36.51783,0.19256,0.94965,-0.00185,0.00238,-0.31331,0.00000,0.00000,0.00000,0.00000,1,0,
07.10 14:18:40:026,8009,-0.02323,-0.03491,9.79738,-0.00000,0.00000,-0.00000,-0.17283,0.34783,-0.68794,-0.28567,-36.51834,0.19216,0.94965,-0.00184,0.00237,-0.31331,0.00000,0.00000,0.00000,0.00000,1,0,
07.10 14:18:40:036,8010,-0.03340,-0.03905,9.80535,-0.00000,0.00000,-0.00000,-0.17285,0.34926,-0.68445,-0.28588,-36.51779,0.19117,0.94965,-0.00185,0.00237,-0.31331,0.00000,0.00000,0.00000,0.00000,1,0,
07.10 14:18:40:045,8011,0.00164,-0.03798,9.79245,-0.00000,0.00000,-0.00000,-0.17182,0.34790,-0.69141,-0.28723,-36.51733,0.19122,0.94965,-0.00186,0.00237,-0.31330,0.00000,0.00000,0.00000,0.00000,1,0,
07.10 14:18:40:054,8012,-0.03062,-0.02769,9.80184,-0.00000,0.00000,-0.00000,-0.17234,0.34780,-0.68644,-0.28639,-36.51686,0.19066,0.94965,-0.00185,0.00236,-0.31330,0.00000,0.00000,0.00000,0.00000,1,0,
07.10 14:18:40:064,8013,-0.01778,-0.04262,9.80039,-0.00000,0.00000,-0.00000,-0.17085,0.35132,-0.68741,-0.28672,-36.51598,0.18959,0.94965,-0.00186,0.00236,-0.31329,0.00000,0.00000,0.00000,0.00000,1,0,
07.10 14:18:40:075,8014,-0.02515,-0.03203,9.80029,-0.00000,0.00000,-0.00000,-0.17181,0.35246,-0.69438,-0.28772,-36.51586,0.18902,0.94965,-0.00187,0.00235,-0.31329,0.00000,0.00000,0.00000,0.00000,1,0,
07.10 14:18:40:085,8015,-0.05349,-0.02081,9.79373,-0.00000,0.00000,-0.00000,-0.17184,0.35032,-0.68742,-0.28817,-36.51497,0.18967,0.94966,-0.00187,0.00236,-0.31328,0.00000,0.00000,0.00000,0.00000,1,0,
07.10 14:18:40:095,8016,-0.03641,-0.01617,9.78329,-0.00000,0.00000,-0.00000,-0.17184,0.34833,-0.68793,-0.28896,-36.51539,0.19101,0.94965,-0.00187,0.00237,-0.31329,0.00000,0.00000,0.00000,0.00000,1,0,
07.10 14:18:40:106,8017,-0.02192,-0.03272,9.79936,-0.00000,0.00000,-0.00000,-0.17235,0.34978,-0.68544,-0.28903,-36.51510,0.19093,0.94965,-0.00187,0.00237,-0.31328,0.00000,0.00000,0.00000,0.00000,1,0,
07.10 14:18:40:115,8018,-0.02263,-0.03772,9.79664,-0.00000,0.00000,-0.00000,-0.17284,0.35028,-0.68544,-0.28962,-36.51461,0.19003,0.94966,-0.00188,0.00237,-0.31328,0.00000,0.00000,0.00000,0.00000,1,0,
07.10 14:18:40:126,8019,-0.02182,-0.02355,9.78742,-0.00000,0.00000,-0.00000,-0.17185,0.35028,-0.68543,-0.28985,-36.51496,0.19070,0.94966,-0.00188,0.00237,-0.31328,0.00000,0.00000,0.00000,0.00000,1,0,
07.10 14:18:40:134,8020,-0.03602,-0.04042,9.79931,-0.00000,0.00000,-0.00000,-0.17234,0.35082,-0.68742,-0.29085,-36.51553,0.19124,0.94965,-0.00189,0.00238,-0.31329,0.00000,0.00000,0.00000,0.00000,1,0,
07.10 14:18:40:144,8021,-0.03405,-0.03449,9.78832,-0.00000,0.00000,-0.00000,-0.17182,0.35040,-0.69140,-0.29020,-36.51538,0.19090,0.94965,-0.00188,0.00238,-0.31329,0.00000,0.00000,0.00000,0.00000,1,0,
07.10 14:18:40:154,8022,-0.03955,-0.02385,9.78940,-0.00000,0.00000,-0.00000,-0.17184,0.35034,-0.68842,-0.28932,-36.51421,0.18983,0.94966,-0.00188,0.00236,-0.31328,0.00000,0.00000,0.00000,0.00000,1,0,
07.10 14:18:40:164,8023,-0.01342,-0.02696,9.80248,-0.00000,0.00000,-0.00000,-0.17432,0.34932,-0.68745,-0.28878,-36.51445,0.18948,0.94966,-0.00188,0.00236,-0.31328,0.00000,0.00000,0.00000,0.00000,1,0,
07.10 14:18:40:175,8024,-0.02024,-0.04285,9.79128,-0.00000,0.00000,-0.00000,-0.17234,0.34782,-0.68743,-0.28864,-36.51349,0.18898,0.94966,-0.00188,0.00236,-0.31327,0.00000,0.00000,0.00000,0.00000,1,0,
07.10 14:18:40:188,8025,-0.02597,-0.04005,9.79242,-0.00000,0.00000,-0.00000,-0.17231,0.35093,-0.69290,-0.28923,-36.51337,0.18971,0.94966,-0.00188,0.00236,-0.31327,0.00000,0.00000,0.00000,0.00000,1,0,
07.10 14:18:40:195,8026,-0.01854,-0.04086,9.79085,-0.00000,0.00000,-0.00000,-0.17036,0.34981,-0.68642,-0.29099,-36.51293,0.19024,0.94966,-0.00189,0.00237,-0.31327,0.00000,0.00000,0.00000,0.00000,1,0,
07.10 14:18:40:206,8027,-0.03017,-0.04299,9.79686,-0.00000,0.00000,-0.00000,-0.17334,0.35029,-0.68594,-0.28785,-36.51318,0.19016,0.94966,-0.00187,0.00236,-0.31327,0.00000,0.00000,0.00000,0.00000,1,0,
07.10 14:18:40:215,8028,-0.02997,-0.03292,9.79936,-0.00000,0.00000,-0.00000,-0.17383,0.34831,-0.68695,-0.28725,-36.51282,0.19011,0.94966,-0.00186,0.00236,-0.31326,0.00000,0.00000,0.00000,0.00000,1,0,
07.10 14:18:40:225,8029,-0.04033,-0.02644,9.79447,-0.00000,0.00000,-0.00000,-0.16986,0.34833,-0.68741,-0.28724,-36.51280,0.19050,0.94966,-0.00186,0.00236,-0.31326,0.00000,0.00000,0.00000,0.00000,1,0,
07.10 14:18:40:234,8030,-0.01965,-0.02561,9.78589,-0.00000,0.00000,-0.00000,-0.17035,0.35035,-0.68841,-0.28721,-36.51215,0.19045,0.94966,-0.00186,0.00236,-0.31326,0.00000,0.00000,0.00000,0.00000,1,0,
07.10 14:18:40:245,8031,-0.03051,-0.03355,9.80508,-0.00000,0.00000,-0.00000,-0.17381,0.34887,-0.68993,-0.28832,-36.51210,0.19086,0.94966,-0.00187,0.00237,-0.31326,0.00000,0.00000,0.00000,0.00000,1,0,
07.10 14:18:40:255,8032,-0.02230,-0.03468,9.79936,-0.00000,0.00000,-0.00000,-0.17431,0.34935,-0.68894,-0.28912,-36.51224,0.19118,0.94966,-0.00187,0.00237,-0.31326,0.00000,0.00000,0.00000,0.00000,1,0,
07.10 14:18:40:265,8033,-0.02699,-0.03152,9.79156,-0.00000,0.00000,-0.00000,-0.17035,0.34732,-0.68692,-0.28843,-36.51223,0.19069,0.94966,-0.00187,0.00237,-0.31326,0.00000,0.00000,0.00000,0.00000,1,0,
07.10 14:18:40:275,8034,-0.03781,-0.02397,9.79266,-0.00000,0.00000,-0.00000,-0.17280,0.34845,-0.69391,-0.28949,-36.51192,0.19063,0.94966,-0.00188,0.00237,-0.31326,0.00000,0.00000,0.00000,0.00000,1,0,
07.10 14:18:40:285,8035,-0.02939,-0.03074,9.79996,-0.00000,0.00000,-0.00000,-0.17283,0.35234,-0.68842,-0.28954,-36.51254,0.19060,0.94966,-0.00188,0.00237,-0.31326,0.00000,0.00000,0.00000,0.00000,1,0,
07.10 14:18:40:294,8036,-0.01542,-0.06653,9.80690,-0.00000,0.00000,-0.00000,-0.17083,0.34992,-0.69189,-0.28892,-36.51280,0.19119,0.94966,-0.00187,0.00237,-0.31326,0.00000,0.00000,0.00000,0.00000,1,0,
07.10 14:18:40:304,8037,-0.02779,-0.02510,9.79984,-0.00000,0.00000,-0.00000,-0.17134,0.34935,-0.68891,-0.28962,-36.51275,0.19110,0.94966,-0.00188,0.00238,-0.31326,0.00000,0.00000,0.00000,0.00000,1,0,
07.10 14:18:40:315,8038,-0.01887,-0.02760,9.80256,-0.00000,0.00000,-0.00000,-0.17135,0.34880,-0.68643,-0.29023,-36.51280,0.19169,0.94966,-0.00188,0.00238,-0.31326,0.00000,0.00000,0.00000,0.00000,1,0,
07.10 14:18:40:324,8039,-0.03395,-0.03087,9.79629,-0.00000,0.00000,-0.00000,-0.17382,0.34836,-0.68944,-0.29061,-36.51278,0.19250,0.94966,-0.00188,0.00239,-0.31326,0.00000,0.00000,0.00000,0.00000,1,0,
07.10 14:18:40:335,8040,-0.02498,-0.01472,9.79648,-0.00000,0.00000,-0.00000,-0.17184,0.34933,-0.68792,-0.29078,-36.51337,0.19297,0.94966,-0.00188,0.00239,-0.31327,0.00000,0.00000,0.00000,0.00000,1,0,
07.10 14:18:40:345,8041,-0.04652,-0.05311,9.78410,-0.00000,0.00000,-0.00000,-0.16837,0.34882,-0.68690,-0.29065,-36.51324,0.19235,0.94966,-0.00188,0.00239,-0.31327,0.00000,0.00000,0.00000,0.00000,1,0,
07.10 14:18:40:355,8042,-0.03582,-0.03839,9.79798,-0.00000,0.00000,-0.00000,-0.16986,0.34830,-0.68592,-0.29067,-36.51315,0.19196,0.94966,-0.00188,0.00239,-0.31327,0.00000,0.00000,0.00000,0.00000,1,0,
07.10 14:18:40:365,8043,-0.02574,-0.03368,9.78684,-0.00000,0.00000,-0.00000,-0.17132,0.34991,-0.69190,-0.28957,-36.51391,0.19296,0.94966,-0.00187,0.00239,-0.31327,0.00000,0.00000,0.00000,0.00000,1,0,
07.10 14:18:40:374,8044,-0.01328,-0.02838,9.79247,-0.00000,0.00000,-0.00000,-0.17234,0.34932,-0.68743,-0.28930,-36.51387,0.19382,0.94966,-0.00187,0.00240,-0.31327,0.00000,0.00000,0.00000,0.00000,1,0,
07.10 14:18:40:415,8045,-0.01746,-0.04761,9.80082,-0.00000,0.00000,-0.00000,-0.17234,0.34881,-0.68693,-0.28817,-36.51391,0.19326,0.94966,-0.00186,0.00239,-0.31327,0.00000,0.00000,0.00000,0.00000,1,0,
07.10 14:18:40:418,8046,-0.02727,-0.04453,9.80263,-0.00000,0.00000,-0.00000,-0.17084,0.34837,-0.68941,-0.28712,-36.51406,0.19349,0.94966,-0.00185,0.00239,-0.31327,0.00000,0.00000,0.00000,0.00000,1,0,
07.10 14:18:40:420,8047,-0.03295,-0.02283,9.81021,-0.00000,0.00000,-0.00000,-0.17134,0.35035,-0.68891,-0.28795,-36.51395,0.19375,0.94966,-0.00186,0.00239,-0.31327,0.00000,0.00000,0.00000,0.00000,1,0,
07.10 14:18:40:424,8048,-0.02633,-0.04423,9.78932,-0.00000,0.00000,-0.00000,-0.17136,0.34826,-0.68444,-0.28668,-36.51458,0.19307,0.94966,-0.00185,0.00238,-0.31328,0.00000,0.00000,0.00000,0.00000,1,0,
07.10 14:18:40:427,8049,-0.01334,-0.02293,9.79307,-0.00000,0.00000,-0.00000,-0.17185,0.35029,-0.68593,-0.28666,-36.51494,0.19296,0.94966,-0.00185,0.00238,-0.31328,0.00000,0.00000,0.00000,0.00000,1,0,
07.10 14:18:40:435,8050,-0.03425,-0.03333,9.80091,-0.00000,0.00000,-0.00000,-0.17031,0.35197,-0.69487,-0.28812,-36.51436,0.19277,0.94966,-0.00186,0.00239,-0.31328,0.00000,0.00000,0.00000,0.00000,1,0,
07.10 14:18:40:445,8051,-0.01694,-0.04331,9.79204,-0.00000,0.00000,-0.00000,-0.17234,0.34779,-0.68594,-0.28794,-36.51461,0.19306,0.94966,-0.00186,0.00239,-0.31328,0.00000,0.00000,0.00000,0.00000,1,0,
07.10 14:18:40:455,8052,-0.01929,-0.02594,9.80771,-0.00000,0.00000,-0.00000,-0.17184,0.34831,-0.68693,-0.28829,-36.51448,0.19376,0.94966,-0.00186,0.00239,-0.31328,0.00000,0.00000,0.00000,0.00000,1,0,
07.10 14:18:40:465,8053,-0.02405,-0.05731,9.78713,-0.00000,0.00000,-0.00000,-0.17234,0.35183,-0.68792,-0.28948,-36.51454,0.19321,0.94966,-0.00187,0.00239,-0.31328,0.00000,0.00000,0.00000,0.00000,1,0,
07.10 14:18:40:474,8054,-0.00575,-0.05590,9.80539,-0.00000,0.00000,-0.00000,-0.17181,0.34945,-0.69390,-0.28975,-36.51389,0.19271,0.94966,-0.00187,0.00239,-0.31327,0.00000,0.00000,0.00000,0.00000,1,0,
07.10 14:18:40:485,8055,-0.02452,-0.01545,9.78923,-0.00000,0.00000,-0.00000,-0.17234,0.35082,-0.68742,-0.28910,-36.51444,0.19200,0.94966,-0.00187,0.00238,-0.31328,0.00000,0.00000,0.00000,0.00000,1,0,
07.10 14:18:40:496,8056,-0.02883,-0.04207,9.80811,-0.00000,0.00000,-0.00000,-0.16985,0.34734,-0.68791,-0.28922,-36.51466,0.19185,0.94966,-0.00187,0.00238,-0.31328,0.00000,0.00000,0.00000,0.00000,1,0,
07.10 14:18:40:505,8057,-0.02990,-0.04064,9.80406,-0.00000,0.00000,-0.00000,-0.17281,0.34891,-0.69191,-0.28887,-36.51438,0.19256,0.94966,-0.00187,0.00239,-0.31328,0.00000,0.00000,0.00000,0.00000,1,0,
07.10 14:18:40:515,8058,-0.03783,-0.04158,9.79037,-0.00000,0.00000,-0.00000,-0.17086,0.34777,-0.68444,-0.28912,-36.51400,0.19207,0.94966,-0.00187,0.00238,-0.31327,0.00000,0.00000,0.00000,0.00000,1,0,
07.10 14:18:40:525,8059,-0.00408,-0.03539,9.78880,-0.00000,0.00000,-0.00000,-0.17182,0.34989,-0.69091,-0.28930,-36.51416,0.19185,0.94966,-0.00187,0.00238,-0.31328,0.00000,0.00000,0.00000,0.00000,1,0,
07.10 14:18:40:534,8060,-0.04742,-0.03203,9.79481,-0.00000,0.00000,-0.00000,-0.17433,0.34879,-0.68595,-0.28704,-36.51454,0.19254,0.94966,-0.00185,0.00238,-0.31328,0.00000,0.00000,0.00000,0.00000,1,0,
07.10 14:18:40:545,8061,-0.02033,-0.02487,9.81076,-0.00000,0.00000,-0.00000,-0.17085,0.34884,-0.68792,-0.28529,-36.51580,0.19283,0.94965,-0.00184,0.00238,-0.31329,0.00000,0.00000,0.00000,0.00000,1,0,
07.10 14:18:40:554,8062,-0.04082,-0.03660,9.80067,-0.00000,0.00000,-0.00000,-0.17183,0.35037,-0.68991,-0.28596,-36.51554,0.19247,0.94965,-0.00184,0.00238,-0.31329,0.00000,0.00000,0.00000,0.00000,1,0,
07.10 14:18:40:565,8063,-0.01816,-0.03634,9.81012,-0.00000,0.00000,-0.00000,-0.17184,0.35131,-0.68692,-0.28546,-36.51551,0.19225,0.94965,-0.00184,0.00237,-0.31329,0.00000,0.00000,0.00000,0.00000,1,0,
07.10 14:18:40:575,8064,-0.00325,-0.04059,9.79490,-0.00000,0.00000,-0.00000,-0.17532,0.34880,-0.68696,-0.28438,-36.51632,0.19192,0.94965,-0.00183,0.00237,-0.31329,0.00000,0.00000,0.00000,0.00000,1,0,
07.10 14:18:40:585,8065,-0.03283,-0.02888,9.79385,-0.00000,0.00000,-0.00000,-0.17234,0.34930,-0.68643,-0.28355,-36.51599,0.19111,0.94965,-0.00183,0.00236,-0.31329,0.00000,0.00000,0.00000,0.00000,1,0,
07.10 14:18:40:595,8066,-0.01829,-0.03470,9.80115,-0.00000,0.00000,-0.00000,-0.17181,0.34844,-0.69340,-0.28317,-36.51619,0.19131,0.94965,-0.00182,0.00236,-0.31329,0.00000,0.00000,0.00000,0.00000,1,0,
07.10 14:18:40:605,8067,-0.02492,-0.04303,9.78453,-0.00000,0.00000,-0.00000,-0.17036,0.34831,-0.68642,-0.28182,-36.51662,0.19173,0.94965,-0.00181,0.00236,-0.31330,0.00000,0.00000,0.00000,0.00000,1,0,
07.10 14:18:40:615,8068,-0.04474,-0.03040,9.80430,-0.00000,0.00000,-0.00000,-0.17234,0.34932,-0.68743,-0.28474,-36.51566,0.19134,0.94965,-0.00184,0.00236,-0.31329,0.00000,0.00000,0.00000,0.00000,1,0,
07.10 14:18:40:625,8069,-0.02892,-0.02778,9.80029,-0.00000,0.00000,-0.00000,-0.17333,0.34881,-0.68694,-0.28489,-36.51622,0.19028,0.94965,-0.00184,0.00236,-0.31329,0.00000,0.00000,0.00000,0.00000,1,0,
07.10 14:18:40:634,8070,-0.04114,-0.03148,9.79798,-0.00000,0.00000,-0.00000,-0.17184,0.35032,-0.68742,-0.28409,-36.51607,0.18960,0.94965,-0.00184,0.00235,-0.31329,0.00000,0.00000,0.00000,0.00000,1,0,
07.10 14:18:40:645,8071,-0.02548,-0.04255,9.79793,-0.00000,0.00000,-0.00000,-0.17084,0.34635,-0.68842,-0.28507,-36.51542,0.18986,0.94965,-0.00184,0.00235,-0.31329,0.00000,0.00000,0.00000,0.00000,1,0,
07.10 14:18:40:655,8072,-0.02577,-0.05117,9.79328,-0.00000,0.00000,-0.00000,-0.17185,0.35080,-0.68643,-0.28540,-36.51588,0.19023,0.94965,-0.00185,0.00236,-0.31329,0.00000,0.00000,0.00000,0.00000,1,0,
07.10 14:18:40:665,8073,-0.01644,-0.04024,9.80129,-0.00000,0.00000,-0.00000,-0.17234,0.34882,-0.68743,-0.28343,-36.51626,0.19036,0.94965,-0.00183,0.00235,-0.31329,0.00000,0.00000,0.00000,0.00000,1,0,
07.10 14:18:40:676,8074,-0.03224,-0.05488,9.78956,-0.00000,0.00000,-0.00000,-0.17280,0.35094,-0.69340,-0.28420,-36.51548,0.19085,0.94965,-0.00183,0.00236,-0.31329,0.00000,0.00000,0.00000,0.00000,1,0,
07.10 14:18:40:685,8075,-0.03036,-0.01396,9.79788,-0.00000,0.00000,-0.00000,-0.17334,0.34777,-0.68495,-0.28504,-36.51520,0.19052,0.94965,-0.00184,0.00236,-0.31328,0.00000,0.00000,0.00000,0.00000,1,0,
07.10 14:18:40:695,8076,-0.01866,-0.03325,9.79252,-0.00000,0.00000,-0.00000,-0.17185,0.35030,-0.68643,-0.28431,-36.51510,0.19022,0.94965,-0.00184,0.00235,-0.31328,0.00000,0.00000,0.00000,0.00000,1,0,
07.10 14:18:40:706,8077,-0.02347,-0.03157,9.79300,-0.00000,0.00000,-0.00000,-0.17083,0.34992,-0.69189,-0.28462,-36.51515,0.19062,0.94965,-0.00184,0.00236,-0.31328,0.00000,0.00000,0.00000,0.00000,1,0,
07.10 14:18:40:715,8078,-0.02509,-0.04960,9.80818,-0.00000,0.00000,-0.00000,-0.16986,0.34980,-0.68591,-0.28587,-36.51409,0.19023,0.94966,-0.00185,0.00236,-0.31328,0.00000,0.00000,0.00000,0.00000,1,0,
07.10 14:18:40:726,8079,-0.02298,-0.04172,9.79481,-0.00000,0.00000,-0.00000,-0.17135,0.34980,-0.68642,-0.28490,-36.51472,0.19030,0.94966,-0.00184,0.00236,-0.31328,0.00000,0.00000,0.00000,0.00000,1,0,
07.10 14:18:40:735,8080,-0.02158,-0.04182,9.78789,-0.00000,0.00000,-0.00000,-0.17384,0.35176,-0.68494,-0.28330,-36.51603,0.19075,0.94965,-0.00183,0.00236,-0.31329,0.00000,0.00000,0.00000,0.00000,1,0,
07.10 14:18:40:745,8081,-0.01655,-0.03225,9.79681,-0.00000,0.00000,-0.00000,-0.17184,0.34782,-0.68743,-0.28338,-36.51602,0.19089,0.94965,-0.00183,0.00236,-0.31329,0.00000,0.00000,0.00000,0.00000,1,0,
07.10 14:18:40:756,8082,-0.02282,-0.04320,9.79865,-0.00000,0.00000,-0.00000,-0.17333,0.35082,-0.68743,-0.28221,-36.51507,0.19051,0.94966,-0.00182,0.00235,-0.31328,0.00000,0.00000,0.00000,0.00000,1,0,
07.10 14:18:40:766,8083,-0.03545,-0.02455,9.79145,-0.00000,0.00000,-0.00000,-0.17184,0.34782,-0.68743,-0.28301,-36.51522,0.19005,0.94965,-0.00183,0.00235,-0.31328,0.00000,0.00000,0.00000,0.00000,1,0,
07.10 14:18:40:775,8084,-0.01837,-0.03796,9.79819,-0.00000,0.00000,-0.00000,-0.17283,0.34935,-0.68893,-0.28222,-36.51586,0.18938,0.94965,-0.00182,0.00234,-0.31329,0.00000,0.00000,0.00000,0.00000,1,0,
07.10 14:18:40:785,8085,-0.02495,-0.03394,9.80244,-0.00000,0.00000,-0.00000,-0.17482,0.34781,-0.68696,-0.28177,-36.51648,0.18928,0.94965,-0.00182,0.00234,-0.31330,0.00000,0.00000,0.00000,0.00000,1,0,
07.10 14:18:40:794,8086,-0.02565,-0.05250,9.81019,-0.00000,0.00000,-0.00000,-0.17135,0.34979,-0.68593,-0.28164,-36.51755,0.18925,0.94965,-0.00182,0.00234,-0.31330,0.00000,0.00000,0.00000,0.00000,1,0,
07.10 14:18:40:805,8087,-0.03231,-0.02762,9.80458,-0.00000,0.00000,-0.00000,-0.17135,0.35032,-0.68742,-0.28170,-36.51781,0.18861,0.94965,-0.00182,0.00233,-0.31331,0.00000,0.00000,0.00000,0.00000,1,0,
07.10 14:18:40:816,8088,-0.00840,-0.02729,9.78923,-0.00000,0.00000,-0.00000,-0.17333,0.34830,-0.68645,-0.28003,-36.51786,0.18881,0.94965,-0.00180,0.00233,-0.31331,0.00000,0.00000,0.00000,0.00000,1,0,
07.10 14:18:40:825,8089,-0.02921,-0.03410,9.79755,-0.00000,0.00000,-0.00000,-0.16933,0.35044,-0.69288,-0.28124,-36.51744,0.18958,0.94965,-0.00181,0.00234,-0.31330,0.00000,0.00000,0.00000,0.00000,1,0,
07.10 14:18:40:835,8090,-0.01700,-0.03536,9.78262,-0.00000,0.00000,-0.00000,-0.17084,0.35034,-0.68841,-0.28134,-36.51668,0.19033,0.94965,-0.00181,0.00235,-0.31330,0.00000,0.00000,0.00000,0.00000,1,0,
07.10 14:18:40:845,8091,-0.01983,-0.03476,9.79645,-0.00000,0.00000,-0.00000,-0.17334,0.34879,-0.68595,-0.28102,-36.51828,0.19042,0.94965,-0.00181,0.00235,-0.31331,0.00000,0.00000,0.00000,0.00000,1,0,
07.10 14:18:40:855,8092,-0.02815,-0.05384,9.79817,-0.00000,0.00000,-0.00000,-0.17382,0.34935,-0.68893,-0.28026,-36.51851,0.18930,0.94965,-0.00181,0.00234,-0.31331,0.00000,0.00000,0.00000,0.00000,1,0,
07.10 14:18:40:865,8093,-0.02529,-0.02900,9.81336,-0.00000,0.00000,-0.00000,-0.17283,0.35132,-0.68743,-0.28110,-36.51799,0.18865,0.94965,-0.00181,0.00233,-0.31331,0.00000,0.00000,0.00000,0.00000,1,0,
07.10 14:18:40:875,8094,-0.02467,-0.02748,9.80177,-0.00000,0.00000,-0.00000,-0.17233,0.34985,-0.68892,-0.28211,-36.51645,0.18822,0.94965,-0.00182,0.00233,-0.31329,0.00000,0.00000,0.00000,0.00000,1,0,
07.10 14:18:40:885,8095,-0.01619,-0.02881,9.80351,-0.00000,0.00000,-0.00000,-0.17333,0.35032,-0.68743,-0.28236,-36.51601,0.18819,0.94965,-0.00183,0.00233,-0.31329,0.00000,0.00000,0.00000,0.00000,1,0,
07.10 14:18:40:895,8096,-0.04942,-0.03067,9.79774,-0.00000,0.00000,-0.00000,-0.17335,0.35175,-0.68444,-0.28210,-36.51564,0.18803,0.94965,-0.00182,0.00233,-0.31329,0.00000,0.00000,0.00000,0.00000,1,0,
07.10 14:18:40:905,8097,-0.01950,-0.03525,9.79993,-0.00000,0.00000,-0.00000,-0.17333,0.34880,-0.68644,-0.28282,-36.51456,0.18775,0.94966,-0.00183,0.00233,-0.31328,0.00000,0.00000,0.00000,0.00000,1,0,
07.10 14:18:40:915,8098,-0.03733,-0.02737,9.80062,-0.00000,0.00000,-0.00000,-0.17134,0.34885,-0.68892,-0.28191,-36.51452,0.18823,0.94966,-0.00182,0.00233,-0.31328,0.00000,0.00000,0.00000,0.00000,1,0,
07.10 14:18:40:925,8099,-0.03394,-0.04959,9.79078,-0.00000,0.00000,-0.00000,-0.17032,0.34944,-0.69289,-0.28244,-36.51434,0.18864,0.94966,-0.00182,0.00234,-0.31328,0.00000,0.00000,0.00000,0.00000,1,0,
07.10 14:18:40:935,8100,-0.02216,-0.04281,9.80053,-0.00000,0.00000,-0.00000,-0.17235,0.34978,-0.68544,-0.28164,-36.51512,0.18883,0.94965,-0.00182,0.00233,-0.31328,0.00000,0.00000,0.00000,0.00000,1,0,
07.10 14:18:40:945,8101,-0.03247,-0.04919,9.80215,-0.00000,0.00000,-0.00000,-0.17282,0.34986,-0.68942,-0.28166,-36.51440,0.19001,0.94966,-0.00181,0.00234,-0.31328,0.00000,0.00000,0.00000,0.00000,1,0,
07.10 14:18:40:953,8102,-0.01954,-0.03013,9.80914,-0.00000,0.00000,-0.00000,-0.17035,0.35034,-0.68791,-0.28261,-36.51338,0.19005,0.94966,-0.00182,0.00235,-0.31327,0.00000,0.00000,0.00000,0.00000,1,0,
07.10 14:18:40:965,8103,-0.02561,-0.02308,9.79917,-0.00000,0.00000,-0.00000,-0.17284,0.35028,-0.68544,-0.28147,-36.51313,0.19015,0.94966,-0.00181,0.00235,-0.31327,0.00000,0.00000,0.00000,0.00000,1,0,
07.10 14:18:40:975,8104,-0.03965,-0.03260,9.80136,-0.00000,0.00000,-0.00000,-0.17283,0.35084,-0.68842,-0.27950,-36.51289,0.19000,0.94966,-0.00180,0.00234,-0.31327,0.00000,0.00000,0.00000,0.00000,1,0,
07.10 14:18:40:985,8105,-0.03293,-0.04235,9.78758,-0.00000,0.00000,-0.00000,-0.17230,0.34895,-0.69390,-0.28162,-36.51210,0.19072,0.94966,-0.00181,0.00235,-0.31326,0.00000,0.00000,0.00000,0.00000,1,0,
07.10 14:18:40:995,8106,-0.04148,-0.01706,9.79733,-0.00000,0.00000,-0.00000,-0.17134,0.35083,-0.68791,-0.28188,-36.51234,0.19099,0.94966,-0.00181,0.00235,-0.31326,0.00000,0.00000,0.00000,0.00000,1,0,
07.10 14:18:41:005,8107,-0.02061,-0.02625,9.80520,-0.00000,0.00000,-0.00000,-0.17134,0.34832,-0.68743,-0.28212,-36.51186,0.19070,0.94966,-0.00182,0.00235,-0.31326,0.00000,0.00000,0.00000,0.00000,1,0,
07.10 14:18:41:015,8108,-0.02448,-0.03925,9.81047,-0.00000,0.00000,-0.00000,-0.17184,0.35183,-0.68791,-0.28185,-36.51271,0.19214,0.94966,-0.00181,0.00236,-0.31326,0.00000,0.00000,0.00000,0.00000,1,0,
07.10 14:18:41:025,8109,-0.02231,-0.04900,9.80186,-0.00000,0.00000,-0.00000,-0.17184,0.35034,-0.68842,-0.28159,-36.51252,0.19258,0.94966,-0.00181,0.00237,-0.31326,0.00000,0.00000,0.00000,0.00000,1,0,
07.10 14:18:41:036,8110,-0.01587,-0.03438,9.78978,-0.00000,0.00000,-0.00000,-0.17135,0.34881,-0.68693,-0.28232,-36.51298,0.19295,0.94966,-0.00181,0.00237,-0.31327,0.00000,0.00000,0.00000,0.00000,1,0,
07.10 14:18:41:045,8111,-0.04064,-0.02488,9.80515,-0.00000,0.00000,-0.00000,-0.17282,0.35039,-0.69091,-0.28162,-36.51276,0.19299,0.94966,-0.00181,0.00237,-0.31326,0.00000,0.00000,0.00000,0.00000,1,0,
07.10 14:18:41:055,8112,-0.03089,-0.03893,9.81433,-0.00000,0.00000,-0.00000,-0.17528,0.34993,-0.69342,-0.28056,-36.51281,0.19247,0.94966,-0.00180,0.00236,-0.31326,0.00000,0.00000,0.00000,0.00000,1,0,
07.10 14:18:41:066,8113,-0.04922,-0.02662,9.78739,-0.00000,0.00000,-0.00000,-0.17135,0.34879,-0.68593,-0.28138,-36.51265,0.19219,0.94966,-0.00181,0.00236,-0.31326,0.00000,0.00000,0.00000,0.00000,1,0,
07.10 14:18:41:075,8114,-0.01714,-0.03397,9.80399,-0.00000,0.00000,-0.00000,-0.17283,0.34982,-0.68743,-0.28298,-36.51287,0.19294,0.94966,-0.00182,0.00237,-0.31327,0.00000,0.00000,0.00000,0.00000,1,0,
07.10 14:18:41:085,8115,-0.04590,-0.04986,9.79331,-0.00000,0.00000,-0.00000,-0.17185,0.34979,-0.68593,-0.28370,-36.51308,0.19292,0.94966,-0.00182,0.00237,-0.31327,0.00000,0.00000,0.00000,0.00000,1,0,
07.10 14:18:41:095,8116,-0.02489,-0.04438,9.80575,-0.00000,0.00000,-0.00000,-0.17184,0.34983,-0.68792,-0.28116,-36.51414,0.19248,0.94966,-0.00180,0.00236,-0.31328,0.00000,0.00000,0.00000,0.00000,1,0,
07.10 14:18:41:105,8117,-0.02975,-0.03551,9.80198,-0.00000,0.00000,-0.00000,-0.17185,0.34928,-0.68544,-0.28141,-36.51369,0.19169,0.94966,-0.00181,0.00236,-0.31327,0.00000,0.00000,0.00000,0.00000,1,0,
07.10 14:18:41:115,8118,-0.02294,-0.02725,9.80048,-0.00000,0.00000,-0.00000,-0.17235,0.34878,-0.68544,-0.28154,-36.51309,0.19170,0.94966,-0.00181,0.00236,-0.31327,0.00000,0.00000,0.00000,0.00000,1,0,
07.10 14:18:41:125,8119,-0.01893,-0.03960,9.79598,-0.00000,0.00000,-0.00000,-0.17135,0.34931,-0.68692,-0.28061,-36.51239,0.19055,0.94966,-0.00180,0.00235,-0.31326,0.00000,0.00000,0.00000,0.00000,1,0,
07.10 14:18:41:135,8120,-0.02129,-0.03339,9.79192,-0.00000,0.00000,-0.00000,-0.17383,0.35130,-0.68694,-0.28086,-36.51241,0.18916,0.94966,-0.00181,0.00234,-0.31326,0.00000,0.00000,0.00000,0.00000,1,0,
07.10 14:18:41:145,8121,-0.04349,-0.02701,9.80732,-0.00000,0.00000,-0.00000,-0.17184,0.34881,-0.68693,-0.28210,-36.51242,0.18931,0.94966,-0.00182,0.00234,-0.31326,0.00000,0.00000,0.00000,0.00000,1,0,
07.10 14:18:41:155,8122,-0.00672,-0.04663,9.79230,-0.00000,0.00000,-0.00000,-0.17333,0.35031,-0.68694,-0.28002,-36.51262,0.19014,0.94966,-0.00180,0.00234,-0.31326,0.00000,0.00000,0.00000,0.00000,1,0,
07.10 14:18:41:164,8123,-0.01912,-0.04091,9.78582,-0.00000,0.00000,-0.00000,-0.17433,0.34878,-0.68546,-0.27987,-36.51337,0.18985,0.94966,-0.00180,0.00234,-0.31327,0.00000,0.00000,0.00000,0.00000,1,0,
07.10 14:18:41:175,8124,-0.02667,-0.02034,9.81545,-0.00000,0.00000,-0.00000,-0.17085,0.35032,-0.68741,-0.28011,-36.51347,0.19083,0.94966,-0.00180,0.00235,-0.31327,0.00000,0.00000,0.00000,0.00000,1,0,
07.10 14:18:41:185,8125,-0.02799,-0.02458,9.79097,-0.00000,0.00000,-0.00000,-0.17284,0.34980,-0.68644,-0.28030,-36.51350,0.19057,0.94966,-0.00180,0.00235,-0.31327,0.00000,0.00000,0.00000,0.00000,1,0,
07.10 14:18:41:195,8126,-0.03202,-0.03732,9.79640,-0.00000,0.00000,-0.00000,-0.17284,0.35031,-0.68693,-0.28109,-36.51326,0.19048,0.94966,-0.00181,0.00235,-0.31327,0.00000,0.00000,0.00000,0.00000,1,0,
07.10 14:18:41:204,8127,-0.03567,-0.03438,9.80787,-0.00000,0.00000,-0.00000,-0.17184,0.34832,-0.68743,-0.28190,-36.51257,0.19072,0.94966,-0.00181,0.00235,-0.31326,0.00000,0.00000,0.00000,0.00000,1,0,
07.10 14:18:41:215,8128,-0.02455,-0.02142,9.81064,-0.00000,0.00000,-0.00000,-0.17281,0.34792,-0.69242,-0.28128,-36.51237,0.19074,0.94966,-0.00181,0.00235,-0.31326,0.00000,0.00000,0.00000,0.00000,1,0,
07.10 14:18:41:225,8129,-0.02966,-0.04910,9.79135,-0.00000,0.00000,-0.00000,-0.17183,0.34836,-0.68942,-0.26273,-36.52822,0.18883,0.94962,-0.00166,0.00228,-0.31339,0.00000,0.00000,0.00000,0.00000,1,0,
07.10 14:18:41:235,8130,-0.02184,-0.01937,9.79393,-0.00000,0.00000,-0.00000,-0.17284,0.34931,-0.68694,-0.26220,-36.52824,0.18856,0.94962,-0.00166,0.00228,-0.31339,0.00000,0.00000,0.00000,0.00000,1,0,
07.10 14:18:41:246,8131,-0.02917,-0.03479,9.78310,-0.00000,0.00000,-0.00000,-0.17085,0.35033,-0.68791,-0.26271,-36.52815,0.18909,0.94962,-0.00166,0.00229,-0.31339,0.00000,0.00000,0.00000,0.00000,1,0,
07.10 14:18:41:255,8132,-0.01646,-0.03692,9.80253,-0.00000,0.00000,-0.00000,-0.17084,0.34838,-0.68991,-0.26177,-36.52835,0.18898,0.94962,-0.00165,0.00228,-0.31339,0.00000,0.00000,0.00000,0.00000,1,0,
07.10 14:18:41:265,8133,-0.03519,-0.04562,9.79731,-0.00000,0.00000,-0.00000,-0.17234,0.34882,-0.68743,-0.26165,-36.52860,0.18920,0.94962,-0.00165,0.00228,-0.31340,0.00000,0.00000,0.00000,0.00000,1,0,
07.10 14:18:41:274,8134,-0.02037,-0.03587,9.79004,-0.00000,0.00000,-0.00000,-0.17234,0.34980,-0.68643,-0.26209,-36.52834,0.18960,0.94962,-0.00165,0.00229,-0.31339,0.00000,0.00000,0.00000,0.00000,1,0,
07.10 14:18:41:285,8135,-0.01619,-0.03454,9.79898,-0.00000,0.00000,-0.00000,-0.17086,0.35029,-0.68592,-0.26237,-36.52783,0.18915,0.94962,-0.00166,0.00229,-0.31339,0.00000,0.00000,0.00000,0.00000,1,0,
07.10 14:18:41:294,8136,-0.01513,-0.02510,9.78696,-0.00000,0.00000,-0.00000,-0.17429,0.34895,-0.69392,-0.26143,-36.52874,0.18854,0.94962,-0.00165,0.00228,-0.31340,0.00000,0.00000,0.00000,0.00000,1,0,
07.10 14:18:41:305,8137,-0.02033,-0.04684,9.78847,-0.00000,0.00000,-0.00000,-0.17335,0.34926,-0.68445,-0.25981,-36.52985,0.18876,0.94961,-0.00164,0.00227,-0.31341,0.00000,0.00000,0.00000,0.00000,1,0,
07.10 14:18:41:316,8138,-0.00415,-0.04631,9.79736,-0.00000,0.00000,-0.00000,-0.17184,0.34982,-0.68742,-0.25922,-36.52942,0.18882,0.94962,-0.00163,0.00227,-0.31340,0.00000,0.00000,0.00000,0.00000,1,0,
07.10 14:18:41:325,8139,-0.01915,-0.02222,9.80046,-0.00000,0.00000,-0.00000,-0.17581,0.34883,-0.68845,-0.25935,-36.52917,0.18858,0.94962,-0.00163,0.00227,-0.31340,0.00000,0.00000,0.00000,0.00000,1,0,
07.10 14:18:41:335,8140,-0.02045,-0.03780,9.79459,-0.00000,0.00000,-0.00000,-0.17083,0.35291,-0.69188,-0.25910,-36.52909,0.18774,0.94962,-0.00163,0.00226,-0.31340,0.00000,0.00000,0.00000,0.00000,1,0,
07.10 14:18:41:346,8141,-0.04329,-0.03233,9.80361,-0.00000,0.00000,-0.00000,-0.17234,0.34880,-0.68644,-0.26079,-36.52878,0.18821,0.94962,-0.00165,0.00227,-0.31340,0.00000,0.00000,0.00000,0.00000,1,0,
07.10 14:18:41:355,8142,-0.03294,-0.03113,9.79369,-0.00000,0.00000,-0.00000,-0.17233,0.34833,-0.68793,-0.26093,-36.52931,0.18832,0.94962,-0.00165,0.00227,-0.31340,0.00000,0.00000,0.00000,0.00000,1,0,
07.10 14:18:41:364,8143,-0.02718,-0.03771,9.79857,-0.00000,0.00000,-0.00000,-0.17236,0.35075,-0.68394,-0.26048,-36.52867,0.18908,0.94962,-0.00164,0.00228,-0.31340,0.00000,0.00000,0.00000,0.00000,1,0,
07.10 14:18:41:375,8144,-0.02371,-0.01619,9.78374,-0.00000,0.00000,-0.00000,-0.17235,0.35029,-0.68593,-0.26042,-36.52935,0.18842,0.94962,-0.00164,0.00227,-0.31340,0.00000,0.00000,0.00000,0.00000,1,0,
07.10 14:18:41:385,8145,-0.03287,-0.05953,9.79018,-0.00000,0.00000,-0.00000,-0.17283,0.35183,-0.68792,-0.26144,-36.52914,0.18882,0.94962,-0.00165,0.00228,-0.31340,0.00000,0.00000,0.00000,0.00000,1,0,
07.10 14:18:41:395,8146,-0.02273,-0.02112,9.80251,-0.00000,0.00000,-0.00000,-0.17284,0.34830,-0.68644,-0.25900,-36.52955,0.18954,0.94962,-0.00163,0.00228,-0.31340,0.00000,0.00000,0.00000,0.00000,1,0,
07.10 14:18:41:405,8147,-0.01664,-0.04390,9.79195,-0.00000,0.00000,-0.00000,-0.17234,0.34930,-0.68643,-0.25910,-36.53028,0.18926,0.94961,-0.00163,0.00228,-0.31341,0.00000,0.00000,0.00000,0.00000,1,0,
07.10 14:18:41:415,8148,-0.00892,-0.04682,9.78346,-0.00000,0.00000,-0.00000,-0.17183,0.34688,-0.68992,-0.25903,-36.52964,0.18975,0.94962,-0.00163,0.00228,-0.31340,0.00000,0.00000,0.00000,0.00000,1,0,
07.10 14:18:41:425,8149,-0.02633,-0.04518,9.79195,-0.00000,0.00000,-0.00000,-0.17283,0.34934,-0.68843,-0.25929,-36.52970,0.18917,0.94962,-0.00163,0.00228,-0.31341,0.00000,0.00000,0.00000,0.00000,1,0,
07.10 14:18:41:435,8150,-0.03225,-0.02974,9.79562,-0.00000,0.00000,-0.00000,-0.16935,0.34935,-0.68840,-0.25921,-36.52935,0.18967,0.94962,-0.00163,0.00228,-0.31340,0.00000,0.00000,0.00000,0.00000,1,0,
07.10 14:18:41:445,8151,-0.02687,-0.01709,9.79731,-0.00000,0.00000,-0.00000,-0.17430,0.35139,-0.69142,-0.25956,-36.52816,0.18942,0.94962,-0.00163,0.00228,-0.31339,0.00000,0.00000,0.00000,0.00000,1,0,
07.10 14:18:41:454,8152,-0.02135,-0.03620,9.79154,-0.00000,0.00000,-0.00000,-0.17284,0.34829,-0.68594,-0.25957,-36.52795,0.18854,0.94962,-0.00164,0.00227,-0.31339,0.00000,0.00000,0.00000,0.00000,1,0,
07.10 14:18:41:465,8153,-0.01661,-0.03578,9.79323,-0.00000,0.00000,-0.00000,-0.17185,0.35080,-0.68643,-0.25908,-36.52902,0.18812,0.94962,-0.00163,0.00227,-0.31340,0.00000,0.00000,0.00000,0.00000,1,0,
07.10 14:18:41:475,8154,-0.01894,-0.04562,9.78589,-0.00000,0.00000,-0.00000,-0.17233,0.34834,-0.68843,-0.25863,-36.52873,0.18799,0.94962,-0.00163,0.00227,-0.31340,0.00000,0.00000,0.00000,0.00000,1,0,
07.10 14:18:41:485,8155,-0.01953,-0.03016,9.78057,-0.00000,0.00000,-0.00000,-0.17284,0.34881,-0.68694,-0.25653,-36.52897,0.18707,0.94962,-0.00161,0.00225,-0.31340,0.00000,0.00000,0.00000,0.00000,1,0,
07.10 14:18:41:495,8156,-0.01439,-0.01425,9.80959,-0.00000,0.00000,-0.00000,-0.17185,0.34929,-0.68593,-0.25673,-36.52902,0.18721,0.94962,-0.00162,0.00225,-0.31340,0.00000,0.00000,0.00000,0.00000,1,0,
07.10 14:18:41:505,8157,-0.01853,-0.03073,9.80201,-0.00000,0.00000,-0.00000,-0.17084,0.34785,-0.68842,-0.25861,-36.52820,0.18764,0.94962,-0.00163,0.00226,-0.31339,0.00000,0.00000,0.00000,0.00000,1,0,
07.10 14:18:41:515,8158,-0.03926,-0.03651,9.79383,-0.00000,0.00000,-0.00000,-0.17384,0.34927,-0.68495,-0.25840,-36.52779,0.18842,0.94962,-0.00163,0.00227,-0.31339,0.00000,0.00000,0.00000,0.00000,1,0,
07.10 14:18:41:526,8159,-0.01622,-0.04320,9.78949,-0.00000,0.00000,-0.00000,-0.17234,0.34830,-0.68644,-0.25844,-36.52792,0.18856,0.94962,-0.00163,0.00227,-0.31339,0.00000,0.00000,0.00000,0.00000,1,0,
07.10 14:18:41:535,8160,-0.03367,-0.01785,9.80639,-0.00000,0.00000,-0.00000,-0.17334,0.34929,-0.68594,-0.25939,-36.52747,0.18934,0.94962,-0.00163,0.00228,-0.31339,0.00000,0.00000,0.00000,0.00000,1,0,
07.10 14:18:41:545,8161,-0.01290,-0.03990,9.80554,-0.00000,0.00000,-0.00000,-0.17284,0.34930,-0.68644,-0.25883,-36.52726,0.19009,0.94962,-0.00163,0.00228,-0.31338,0.00000,0.00000,0.00000,0.00000,1,0,
07.10 14:18:41:555,8162,-0.01778,-0.03583,9.79576,-0.00000,0.00000,-0.00000,-0.17433,0.34829,-0.68596,-0.25984,-36.52687,0.19076,0.94962,-0.00163,0.00229,-0.31338,0.00000,0.00000,0.00000,0.00000,1,0,
07.10 14:18:41:565,8163,-0.01120,-0.04006,9.80031,-0.00000,0.00000,-0.00000,-0.17384,0.34878,-0.68545,-0.26158,-36.52653,0.19104,0.94962,-0.00165,0.00230,-0.31338,0.00000,0.00000,0.00000,0.00000,1,0,
07.10 14:18:41:575,8164,-0.02975,-0.02841,9.80580,-0.00000,0.00000,-0.00000,-0.17332,0.34985,-0.68893,-0.26167,-36.52739,0.19116,0.94962,-0.00165,0.00230,-0.31339,0.00000,0.00000,0.00000,0.00000,1,0,
07.10 14:18:41:585,8165,-0.03524,-0.02873,9.79552,-0.00000,0.00000,-0.00000,-0.17234,0.34832,-0.68743,-0.26116,-36.52740,0.19099,0.94962,-0.00164,0.00230,-0.31339,0.00000,0.00000,0.00000,0.00000,1,0,
07.10 14:18:41:594,8166,-0.02140,-0.04086,9.79693,-0.00000,0.00000,-0.00000,-0.17184,0.34931,-0.68693,-0.26041,-36.52795,0.19061,0.94962,-0.00164,0.00229,-0.31339,0.00000,0.00000,0.00000,0.00000,1,0,
07.10 14:18:41:605,8167,-0.02052,-0.03955,9.80248,-0.00000,0.00000,-0.00000,-0.17284,0.34831,-0.68694,-0.25933,-36.52753,0.19034,0.94962,-0.00163,0.00229,-0.31339,0.00000,0.00000,0.00000,0.00000,1,0,
07.10 14:18:41:615,8168,-0.02314,-0.04011,9.80017,-0.00000,0.00000,-0.00000,-0.17383,0.34979,-0.68595,-0.26021,-36.52699,0.19091,0.94962,-0.00163,0.00229,-0.31338,0.00000,0.00000,0.00000,0.00000,1,0,
07.10 14:18:41:625,8169,-0.03913,-0.04665,9.79784,-0.00000,0.00000,-0.00000,-0.17131,0.34994,-0.69339,-0.26037,-36.52662,0.19127,0.94962,-0.00163,0.00230,-0.31338,0.00000,0.00000,0.00000,0.00000,1,0,
07.10 14:18:41:635,8170,-0.02852,-0.05318,9.80086,-0.00000,0.00000,-0.00000,-0.17333,0.34833,-0.68794,-0.25907,-36.52671,0.19178,0.94962,-0.00162,0.00230,-0.31338,0.00000,0.00000,0.00000,0.00000,1,0,
07.10 14:18:41:645,8171,-0.02085,-0.03471,9.79161,-0.00000,0.00000,-0.00000,-0.17233,0.34833,-0.68793,-0.26001,-36.52668,0.19054,0.94962,-0.00163,0.00229,-0.31338,0.00000,0.00000,0.00000,0.00000,1,0,
07.10 14:18:41:655,8172,-0.03162,-0.01779,9.80096,-0.00000,0.00000,-0.00000,-0.17134,0.35136,-0.68941,-0.26057,-36.52651,0.19137,0.94962,-0.00164,0.00230,-0.31338,0.00000,0.00000,0.00000,0.00000,1,0,
07.10 14:18:41:664,8173,-0.01074,-0.04382,9.80091,-0.00000,0.00000,-0.00000,-0.17333,0.34780,-0.68645,-0.26025,-36.52651,0.19060,0.94962,-0.00164,0.00229,-0.31338,0.00000,0.00000,0.00000,0.00000,1,0,
07.10 14:18:41:674,8174,-0.01896,-0.04097,9.80191,-0.00000,0.00000,-0.00000,-0.17083,0.34940,-0.69090,-0.25871,-36.52702,0.19079,0.94962,-0.00162,0.00229,-0.31338,0.00000,0.00000,0.00000,0.00000,1,0,
07.10 14:18:41:685,8175,-0.01109,-0.03764,9.79824,-0.00000,0.00000,-0.00000,-0.17284,0.34880,-0.68644,-0.25793,-36.52620,0.19122,0.94962,-0.00161,0.00229,-0.31338,0.00000,0.00000,0.00000,0.00000,1,0,
07.10 14:18:41:695,8176,-0.02636,-0.03481,9.79452,-0.00000,0.00000,-0.00000,-0.17235,0.34979,-0.68593,-0.25714,-36.52680,0.19111,0.94962,-0.00161,0.00229,-0.31338,0.00000,0.00000,0.00000,0.00000,1,0,
07.10 14:18:41:705,8177,-0.02043,-0.04055,9.79307,-0.00000,0.00000,-0.00000,-0.17384,0.34927,-0.68495,-0.25679,-36.52747,0.19122,0.94962,-0.00161,0.00229,-0.31339,0.00000,0.00000,0.00000,0.00000,1,0,
07.10 14:18:41:714,8178,-0.02279,-0.02800,9.79505,-0.00000,0.00000,-0.00000,-0.16986,0.34681,-0.68642,-0.25802,-36.52751,0.19141,0.94962,-0.00161,0.00229,-0.31339,0.00000,0.00000,0.00000,0.00000,1,0,
07.10 14:18:41:724,8179,-0.03423,-0.04911,9.79192,-0.00000,0.00000,-0.00000,-0.17134,0.34932,-0.68742,-0.25692,-36.52742,0.19065,0.94962,-0.00161,0.00228,-0.31339,0.00000,0.00000,0.00000,0.00000,1,0,
07.10 14:18:41:735,8180,-0.01458,-0.04703,9.78611,-0.00000,0.00000,-0.00000,-0.17383,0.34830,-0.68645,-0.25574,-36.52730,0.19067,0.94962,-0.00160,0.00228,-0.31339,0.00000,0.00000,0.00000,0.00000,1,0,
07.10 14:18:41:744,8181,-0.01516,-0.02703,9.80999,-0.00000,0.00000,-0.00000,-0.17136,0.34678,-0.68494,-0.25518,-36.52738,0.19161,0.94962,-0.00159,0.00229,-0.31339,0.00000,0.00000,0.00000,0.00000,1,0,
07.10 14:18:41:755,8182,-0.02673,-0.05144,9.79297,-0.00000,0.00000,-0.00000,-0.17383,0.34882,-0.68744,-0.25255,-36.52768,0.19112,0.94962,-0.00157,0.00227,-0.31339,0.00000,0.00000,0.00000,0.00000,1,0,
07.10 14:18:41:764,8183,-0.03210,-0.02563,9.80287,-0.00000,0.00000,-0.00000,-0.17185,0.34978,-0.68543,-0.25347,-36.52792,0.18977,0.94962,-0.00158,0.00227,-0.31339,0.00000,0.00000,0.00000,0.00000,1,0,
07.10 14:18:41:775,8184,-0.01808,-0.04133,9.79226,-0.00000,0.00000,-0.00000,-0.17283,0.34784,-0.68843,-0.25531,-36.52761,0.18894,0.94962,-0.00160,0.00226,-0.31339,0.00000,0.00000,0.00000,0.00000,1,0,
07.10 14:18:41:785,8185,-0.04454,-0.04483,9.80110,-0.00000,0.00000,-0.00000,-0.17281,0.34992,-0.69241,-0.25442,-36.52799,0.18885,0.94962,-0.00159,0.00226,-0.31339,0.00000,0.00000,0.00000,0.00000,1,0,
07.10 14:18:41:795,8186,-0.03104,-0.00830,9.80616,-0.00000,0.00000,-0.00000,-0.17234,0.34782,-0.68743,-0.25402,-36.52811,0.18905,0.94962,-0.00159,0.00226,-0.31339,0.00000,0.00000,0.00000,0.00000,1,0,
07.10 14:18:41:805,8187,-0.01327,-0.04584,9.80392,-0.00000,0.00000,-0.00000,-0.17231,0.35042,-0.69240,-0.25462,-36.52816,0.18880,0.94962,-0.00159,0.00226,-0.31339,0.00000,0.00000,0.00000,0.00000,1,0,
07.10 14:18:41:814,8188,-0.01805,-0.03766,9.79457,-0.00000,0.00000,-0.00000,-0.17235,0.34826,-0.68445,-0.25500,-36.52824,0.18897,0.94962,-0.00160,0.00226,-0.31339,0.00000,0.00000,0.00000,0.00000,1,0,
07.10 14:18:41:825,8189,-0.02675,-0.05629,9.80015,-0.00000,0.00000,-0.00000,-0.17383,0.34780,-0.68645,-0.25384,-36.52823,0.18952,0.94962,-0.00159,0.00226,-0.31339,0.00000,0.00000,0.00000,0.00000,1,0,
07.10 14:18:41:835,8190,-0.03891,-0.04002,9.77564,-0.00000,0.00000,-0.00000,-0.17185,0.34978,-0.68543,-0.25403,-36.52852,0.19025,0.94962,-0.00158,0.00227,-0.31340,0.00000,0.00000,0.00000,0.00000,1,0,
07.10 14:18:41:845,8191,-0.02637,-0.03211,9.79187,-0.00000,0.00000,-0.00000,-0.17632,0.34927,-0.68547,-0.25512,-36.52767,0.19078,0.94962,-0.00159,0.00228,-0.31339,0.00000,0.00000,0.00000,0.00000,1,0,
07.10 14:18:41:855,8192,-0.00923,-0.03270,9.80442,-0.00000,0.00000,-0.00000,-0.17434,0.34877,-0.68496,-0.25447,-36.52784,0.18957,0.94962,-0.00159,0.00227,-0.31339,0.00000,0.00000,0.00000,0.00000,1,0,
07.10 14:18:41:864,8193,-0.03539,-0.04754,9.79688,-0.00000,0.00000,-0.00000,-0.17285,0.34827,-0.68495,-0.25556,-36.52838,0.18917,0.94962,-0.00160,0.00227,-0.31339,0.00000,0.00000,0.00000,0.00000,1,0,
07.10 14:18:41:875,8194,-0.03110,-0.03123,9.80179,-0.00000,0.00000,-0.00000,-0.17284,0.34880,-0.68644,-0.25539,-36.52859,0.18933,0.94962,-0.00160,0.00227,-0.31340,0.00000,0.00000,0.00000,0.00000,1,0,
07.10 14:18:41:885,8195,-0.03601,-0.03017,9.78203,-0.00000,0.00000,-0.00000,-0.17433,0.34927,-0.68545,-0.25360,-36.52905,0.18914,0.94962,-0.00158,0.00226,-0.31340,0.00000,0.00000,0.00000,0.00000,1,0,
07.10 14:18:41:895,8196,-0.02839,-0.04777,9.78916,-0.00000,0.00000,-0.00000,-0.17135,0.35080,-0.68642,-0.25400,-36.52811,0.18872,0.94962,-0.00159,0.00226,-0.31339,0.00000,0.00000,0.00000,0.00000,1,0,
07.10 14:18:41:905,8197,-0.00890,-0.03047,9.81698,-0.00000,0.00000,-0.00000,-0.17334,0.34979,-0.68594,-0.25304,-36.52800,0.18873,0.94962,-0.00158,0.00226,-0.31339,0.00000,0.00000,0.00000,0.00000,1,0,
07.10 14:18:41:914,8198,-0.01562,-0.04091,9.80651,-0.00000,0.00000,-0.00000,-0.17186,0.34974,-0.68344,-0.25180,-36.52848,0.18866,0.94962,-0.00157,0.00225,-0.31340,0.00000,0.00000,0.00000,0.00000,1,0,
07.10 14:18:41:925,8199,-0.02470,-0.03240,9.78849,-0.00000,0.00000,-0.00000,-0.17334,0.34676,-0.68446,-0.25321,-36.52878,0.18872,0.94962,-0.00158,0.00226,-0.31340,0.00000,0.00000,0.00000,0.00000,1,0,
07.10 14:18:41:935,8200,-0.02613,-0.05071,9.80070,-0.00000,0.00000,-0.00000,-0.17136,0.35028,-0.68543,-0.25280,-36.52880,0.18755,0.94962,-0.00158,0.00225,-0.31340,0.00000,0.00000,0.00000,0.00000,1,0,
07.10 14:18:41:946,8201,-0.03869,-0.03037,9.79798,-0.00000,0.00000,-0.00000,-0.17335,0.34874,-0.68346,-0.25139,-36.52942,0.18785,0.94962,-0.00157,0.00224,-0.31340,0.00000,0.00000,0.00000,0.00000,1,0,
07.10 14:18:41:955,8202,-0.00640,-0.03239,9.78930,-0.00000,0.00000,-0.00000,-0.17235,0.34927,-0.68494,-0.25062,-36.52932,0.18748,0.94962,-0.00156,0.00224,-0.31340,0.00000,0.00000,0.00000,0.00000,1,0,
07.10 14:18:41:965,8203,-0.03089,-0.03143,9.78608,-0.00000,0.00000,-0.00000,-0.17283,0.34734,-0.68844,-0.24982,-36.52841,0.18760,0.94962,-0.00156,0.00224,-0.31339,0.00000,0.00000,0.00000,0.00000,1,0,
07.10 14:18:41:975,8204,-0.01023,-0.02128,9.80523,-0.00000,0.00000,-0.00000,-0.17231,0.34843,-0.69291,-0.25057,-36.52820,0.18735,0.94962,-0.00156,0.00224,-0.31339,0.00000,0.00000,0.00000,0.00000,1,0,
07.10 14:18:41:985,8205,-0.00847,-0.02865,9.79946,-0.00000,0.00000,-0.00000,-0.17334,0.34979,-0.68594,-0.24979,-36.52870,0.18809,0.94962,-0.00156,0.00224,-0.31340,0.00000,0.00000,0.00000,0.00000,1,0,
07.10 14:18:41:995,8206,-0.03195,-0.02620,9.80084,-0.00000,0.00000,-0.00000,-0.17184,0.34982,-0.68742,-0.24921,-36.52877,0.18734,0.94962,-0.00155,0.00223,-0.31340,0.00000,0.00000,0.00000,0.00000,1,0,
07.10 14:18:42:005,8207,-0.01675,-0.03639,9.79440,-0.00000,0.00000,-0.00000,-0.17433,0.34879,-0.68595,-0.24576,-36.52969,0.18744,0.94962,-0.00152,0.00223,-0.31341,0.00000,0.00000,0.00000,0.00000,1,0,
07.10 14:18:42:015,8208,-0.01510,-0.03789,9.81071,-0.00000,0.00000,-0.00000,-0.17234,0.34730,-0.68644,-0.24580,-36.52990,0.18874,0.94962,-0.00152,0.00224,-0.31341,0.00000,0.00000,0.00000,0.00000,1,0,
07.10 14:18:42:025,8209,-0.00860,-0.01745,9.79800,-0.00000,0.00000,-0.00000,-0.17234,0.34882,-0.68743,-0.24525,-36.52959,0.18911,0.94962,-0.00152,0.00224,-0.31340,0.00000,0.00000,0.00000,0.00000,1,0,
07.10 14:18:42:035,8210,-0.01333,-0.03660,9.81095,-0.00000,0.00000,-0.00000,-0.17235,0.34728,-0.68545,-0.24472,-36.52961,0.18933,0.94962,-0.00151,0.00224,-0.31340,0.00000,0.00000,0.00000,0.00000,1,0,
07.10 14:18:42:045,8211,-0.02600,-0.01495,9.80511,-0.00000,0.00000,-0.00000,-0.17284,0.34780,-0.68644,-0.24464,-36.53030,0.19126,0.94961,-0.00150,0.00225,-0.31341,0.00000,0.00000,0.00000,0.00000,1,0,
07.10 14:18:42:054,8212,-0.02439,-0.02388,9.80093,-0.00000,0.00000,-0.00000,-0.17383,0.34882,-0.68744,-0.24606,-36.52966,0.19220,0.94962,-0.00151,0.00227,-0.31341,0.00000,0.00000,0.00000,0.00000,1,0,
07.10 14:18:42:065,8213,-0.01011,-0.02137,9.81538,-0.00000,0.00000,-0.00000,-0.17086,0.34778,-0.68493,-0.24547,-36.53026,0.19236,0.94961,-0.00151,0.00227,-0.31341,0.00000,0.00000,0.00000,0.00000,1,0,
07.10 14:18:42:074,8214,-0.03569,-0.01982,9.81207,-0.00000,0.00000,-0.00000,-0.17086,0.34830,-0.68593,-0.24577,-36.53027,0.19319,0.94961,-0.00151,0.00227,-0.31341,0.00000,0.00000,0.00000,0.00000,1,0,
07.10 14:18:42:085,8215,-0.04696,-0.02588,9.79347,-0.00000,0.00000,-0.00000,-0.17483,0.35077,-0.68545,-0.24765,-36.52953,0.19367,0.94962,-0.00152,0.00228,-0.31340,0.00000,0.00000,0.00000,0.00000,1,0,
07.10 14:18:42:095,8216,-0.03283,-0.02829,9.80277,-0.00000,0.00000,-0.00000,-0.17383,0.34830,-0.68645,-0.24574,-36.52943,0.19327,0.94962,-0.00151,0.00227,-0.31340,0.00000,0.00000,0.00000,0.00000,1,0,
07.10 14:18:42:105,8217,-0.03068,-0.03285,9.79431,-0.00000,0.00000,-0.00000,-0.17283,0.34784,-0.68843,-0.24586,-36.53045,0.19276,0.94961,-0.00151,0.00227,-0.31341,0.00000,0.00000,0.00000,0.00000,1,0,
07.10 14:18:42:114,8218,-0.03842,-0.02472,9.80496,-0.00000,0.00000,-0.00000,-0.17434,0.34774,-0.68347,-0.24454,-36.53113,0.19220,0.94961,-0.00150,0.00226,-0.31342,0.00000,0.00000,0.00000,0.00000,1,0,
07.10 14:18:42:124,8219,-0.02834,-0.04139,9.79574,-0.00000,0.00000,-0.00000,-0.17234,0.34630,-0.68644,-0.24448,-36.53173,0.19213,0.94961,-0.00150,0.00226,-0.31342,0.00000,0.00000,0.00000,0.00000,1,0,
07.10 14:18:42:135,8220,-0.01468,-0.04645,9.79974,-0.00000,0.00000,-0.00000,-0.17236,0.34723,-0.68296,-0.24541,-36.53136,0.19246,0.94961,-0.00151,0.00227,-0.31342,0.00000,0.00000,0.00000,0.00000,1,0,
07.10 14:18:42:144,8221,-0.01230,-0.03256,9.79595,-0.00000,0.00000,-0.00000,-0.17086,0.34977,-0.68493,-0.24578,-36.53141,0.19206,0.94961,-0.00151,0.00226,-0.31342,0.00000,0.00000,0.00000,0.00000,1,0,
07.10 14:18:42:154,8222,-0.04115,-0.02288,9.78913,-0.00000,0.00000,-0.00000,-0.17434,0.34926,-0.68496,-0.24612,-36.53079,0.19174,0.94961,-0.00152,0.00226,-0.31341,0.00000,0.00000,0.00000,0.00000,1,0,
07.10 14:18:42:165,8223,-0.03902,-0.04239,9.80234,-0.00000,0.00000,-0.00000,-0.17186,0.34776,-0.68445,-0.24525,-36.53079,0.19124,0.94961,-0.00151,0.00226,-0.31341,0.00000,0.00000,0.00000,0.00000,1,0,
07.10 14:18:42:175,8224,-0.03014,-0.02510,9.79362,-0.00000,0.00000,-0.00000,-0.17234,0.34731,-0.68694,-0.24446,-36.53154,0.19105,0.94961,-0.00150,0.00225,-0.31342,0.00000,0.00000,0.00000,0.00000,1,0,
07.10 14:18:42:184,8225,-0.01695,-0.02355,9.79974,-0.00000,0.00000,-0.00000,-0.17284,0.34830,-0.68644,-0.24518,-36.53067,0.19105,0.94961,-0.00151,0.00225,-0.31341,0.00000,0.00000,0.00000,0.00000,1,0,
07.10 14:18:42:195,8226,-0.01916,-0.03482,9.79545,-0.00000,0.00000,-0.00000,-0.17283,0.34932,-0.68743,-0.24469,-36.53060,0.19197,0.94961,-0.00150,0.00226,-0.31341,0.00000,0.00000,0.00000,0.00000,1,0,
07.10 14:18:42:205,8227,-0.01660,-0.06661,9.80754,-0.00000,0.00000,-0.00000,-0.17135,0.34731,-0.68643,-0.24381,-36.53013,0.19250,0.94961,-0.00149,0.00226,-0.31341,0.00000,0.00000,0.00000,0.00000,1,0,
07.10 14:18:42:214,8228,-0.02887,-0.02351,9.80217,-0.00000,0.00000,-0.00000,-0.17234,0.34829,-0.68594,-0.24490,-36.53027,0.19228,0.94961,-0.00150,0.00226,-0.31341,0.00000,0.00000,0.00000,0.00000,1,0,
07.10 14:18:42:225,8229,-0.02744,-0.03560,9.79602,-0.00000,0.00000,-0.00000,-0.17085,0.34681,-0.68643,-0.24409,-36.53069,0.19308,0.94961,-0.00149,0.00227,-0.31341,0.00000,0.00000,0.00000,0.00000,1,0,
07.10 14:18:42:234,8230,-0.03426,-0.02315,9.79235,-0.00000,0.00000,-0.00000,-0.17283,0.34884,-0.68843,-0.24463,-36.53056,0.19344,0.94961,-0.00150,0.00227,-0.31341,0.00000,0.00000,0.00000,0.00000,1,0,
07.10 14:18:42:246,8231,-0.00312,-0.01896,9.79447,-0.00000,0.00000,-0.00000,-0.17333,0.34780,-0.68645,-0.24469,-36.53064,0.19358,0.94961,-0.00150,0.00227,-0.31341,0.00000,0.00000,0.00000,0.00000,1,0,
07.10 14:18:42:255,8232,-0.03429,-0.02946,9.80084,-0.00000,0.00000,-0.00000,-0.17284,0.34980,-0.68644,-0.24476,-36.53119,0.19311,0.94961,-0.00150,0.00227,-0.31342,0.00000,0.00000,0.00000,0.00000,1,0,
07.10 14:18:42:266,8233,-0.02715,-0.01162,9.78689,-0.00000,0.00000,-0.00000,-0.17384,0.34727,-0.68496,-0.24503,-36.53078,0.19278,0.94961,-0.00150,0.00227,-0.31341,0.00000,0.00000,0.00000,0.00000,1,0,
07.10 14:18:42:275,8234,-0.02002,-0.03501,9.80330,-0.00000,0.00000,-0.00000,-0.17184,0.34982,-0.68742,-0.24304,-36.53167,0.19334,0.94961,-0.00149,0.00227,-0.31342,0.00000,0.00000,0.00000,0.00000,1,0,
07.10 14:18:42:285,8235,-0.03013,-0.02654,9.79979,-0.00000,0.00000,-0.00000,-0.17185,0.34777,-0.68494,-0.24358,-36.53092,0.19347,0.94961,-0.00149,0.00227,-0.31342,0.00000,0.00000,0.00000,0.00000,1,0,
07.10 14:18:42:295,8236,-0.02988,-0.04323,9.78751,-0.00000,0.00000,-0.00000,-0.17235,0.35077,-0.68494,-0.24443,-36.53014,0.19450,0.94961,-0.00149,0.00228,-0.31341,0.00000,0.00000,0.00000,0.00000,1,0,
07.10 14:18:42:304,8237,-0.01788,-0.03011,9.79963,-0.00000,0.00000,-0.00000,-0.17432,0.34933,-0.68794,-0.24100,-36.53003,0.19372,0.94961,-0.00147,0.00226,-0.31341,0.00000,0.00000,0.00000,0.00000,1,0,
07.10 14:18:42:317,8238,-0.03322,-0.03144,9.79865,-0.00000,0.00000,-0.00000,-0.17136,0.34777,-0.68494,-0.24035,-36.52920,0.19430,0.94962,-0.00146,0.00227,-0.31340,0.00000,0.00000,0.00000,0.00000,1,0,
07.10 14:18:42:325,8239,-0.03947,-0.03160,9.80031,-0.00000,0.00000,-0.00000,-0.17433,0.34979,-0.68645,-0.24142,-36.52839,0.19492,0.94962,-0.00147,0.00228,-0.31339,0.00000,0.00000,0.00000,0.00000,1,0,
07.10 14:18:42:337,8240,-0.03131,-0.04790,9.78682,-0.00000,0.00000,-0.00000,-0.17131,0.34996,-0.69439,-0.24166,-36.52932,0.19486,0.94962,-0.00147,0.00228,-0.31340,0.00000,0.00000,0.00000,0.00000,1,0,
07.10 14:18:42:346,8241,-0.01479,-0.03093,9.80253,-0.00000,0.00000,-0.00000,-0.17234,0.34930,-0.68643,-0.24225,-36.52868,0.19463,0.94962,-0.00148,0.00228,-0.31340,0.00000,0.00000,0.00000,0.00000,1,0,
07.10 14:18:42:355,8242,0.00160,-0.02058,9.79397,-0.00000,0.00000,-0.00000,-0.17333,0.34483,-0.68795,-0.24209,-36.52874,0.19423,0.94962,-0.00148,0.00227,-0.31340,0.00000,0.00000,0.00000,0.00000,1,0,
07.10 14:18:42:365,8243,-0.03679,-0.03931,9.80358,-0.00000,0.00000,-0.00000,-0.17283,0.34782,-0.68744,-0.24163,-36.52885,0.19398,0.94962,-0.00147,0.00227,-0.31340,0.00000,0.00000,0.00000,0.00000,1,0,
07.10 14:18:42:375,8244,-0.01634,-0.04524,9.79951,-0.00000,0.00000,-0.00000,-0.17330,0.34893,-0.69291,-0.24173,-36.52800,0.19359,0.94962,-0.00147,0.00227,-0.31339,0.00000,0.00000,0.00000,0.00000,1,0,
07.10 14:18:42:385,8245,-0.04746,-0.01695,9.79550,-0.00000,0.00000,-0.00000,-0.17036,0.34930,-0.68592,-0.24200,-36.52829,0.19262,0.94962,-0.00148,0.00226,-0.31339,0.00000,0.00000,0.00000,0.00000,1,0,
07.10 14:18:42:395,8246,-0.01964,-0.01158,9.78606,-0.00000,0.00000,-0.00000,-0.17330,0.34742,-0.69242,-0.23934,-36.52882,0.19348,0.94962,-0.00145,0.00226,-0.31340,0.00000,0.00000,0.00000,0.00000,1,0,
07.10 14:18:42:405,8247,-0.02138,-0.03709,9.78658,-0.00000,0.00000,-0.00000,-0.17184,0.34781,-0.68693,-0.23888,-36.52845,0.19328,0.94962,-0.00145,0.00226,-0.31340,0.00000,0.00000,0.00000,0.00000,1,0,
07.10 14:18:42:415,8248,-0.01871,-0.03589,9.80291,-0.00000,0.00000,-0.00000,-0.17432,0.34784,-0.68845,-0.23890,-36.52840,0.19372,0.94962,-0.00145,0.00226,-0.31339,0.00000,0.00000,0.00000,0.00000,1,0,
07.10 14:18:42:425,8249,-0.03556,-0.02265,9.79462,-0.00000,0.00000,-0.00000,-0.17383,0.34679,-0.68596,-0.23946,-36.52774,0.19452,0.94962,-0.00145,0.00227,-0.31339,0.00000,0.00000,0.00000,0.00000,1,0,
07.10 14:18:42:435,8250,-0.01884,-0.03124,9.79321,-0.00000,0.00000,-0.00000,-0.17233,0.34933,-0.68793,-0.23931,-36.52790,0.19433,0.94962,-0.00145,0.00226,-0.31339,0.00000,0.00000,0.00000,0.00000,1,0,
07.10 14:18:42:445,8251,-0.02503,-0.02417,9.79660,-0.00000,0.00000,-0.00000,-0.17283,0.34883,-0.68793,-0.23992,-36.52781,0.19428,0.94962,-0.00146,0.00227,-0.31339,0.00000,0.00000,0.00000,0.00000,1,0,
07.10 14:18:42:455,8252,-0.02897,-0.04464,9.79192,-0.00000,0.00000,-0.00000,-0.17184,0.35131,-0.68692,-0.24029,-36.52856,0.19434,0.94962,-0.00146,0.00227,-0.31340,0.00000,0.00000,0.00000,0.00000,1,0,
07.10 14:18:42:466,8253,-0.02910,-0.01439,9.78680,-0.00000,0.00000,-0.00000,-0.17283,0.35133,-0.68792,-0.23959,-36.52844,0.19437,0.94962,-0.00145,0.00227,-0.31340,0.00000,0.00000,0.00000,0.00000,1,0,
07.10 14:18:42:475,8254,-0.02012,-0.04029,9.78622,-0.00000,0.00000,-0.00000,-0.17334,0.35080,-0.68644,-0.23988,-36.52859,0.19403,0.94962,-0.00146,0.00226,-0.31340,0.00000,0.00000,0.00000,0.00000,1,0,
07.10 14:18:42:485,8255,-0.01748,-0.02485,9.79877,-0.00000,0.00000,-0.00000,-0.17284,0.35030,-0.68643,-0.23998,-36.52858,0.19439,0.94962,-0.00146,0.00227,-0.31340,0.00000,0.00000,0.00000,0.00000,1,0,
07.10 14:18:42:495,8256,-0.03054,-0.03998,9.79462,-0.00000,0.00000,-0.00000,-0.17085,0.34681,-0.68643,-0.24075,-36.52930,0.19456,0.94962,-0.00146,0.00227,-0.31340,0.00000,0.00000,0.00000,0.00000,1,0,
07.10 14:18:42:505,8257,-0.03407,-0.04134,9.79710,-0.00000,0.00000,-0.00000,-0.17382,0.34683,-0.68795,-0.24081,-36.52960,0.19416,0.94962,-0.00146,0.00227,-0.31340,0.00000,0.00000,0.00000,0.00000,1,0,
07.10 14:18:42:517,8258,-0.00265,-0.03988,9.79137,-0.00000,0.00000,-0.00000,-0.17136,0.34478,-0.68495,-0.23995,-36.53003,0.19375,0.94961,-0.00146,0.00226,-0.31341,0.00000,0.00000,0.00000,0.00000,1,0,
07.10 14:18:42:525,8259,-0.01421,-0.04324,9.80217,-0.00000,0.00000,-0.00000,-0.17184,0.34781,-0.68693,-0.24046,-36.52980,0.19426,0.94962,-0.00146,0.00227,-0.31341,0.00000,0.00000,0.00000,0.00000,1,0,
07.10 14:18:42:536,8260,-0.02570,-0.02346,9.80473,-0.00000,0.00000,-0.00000,-0.17234,0.34831,-0.68694,-0.24115,-36.52921,0.19567,0.94962,-0.00146,0.00228,-0.31340,0.00000,0.00000,0.00000,0.00000,1,0,
07.10 14:18:42:545,8261,-0.02059,-0.02130,9.79180,-0.00000,0.00000,-0.00000,-0.17186,0.34776,-0.68445,-0.24080,-36.52839,0.19508,0.94962,-0.00146,0.00228,-0.31339,0.00000,0.00000,0.00000,0.00000,1,0,
07.10 14:18:42:555,8262,-0.02463,-0.02458,9.79323,-0.00000,0.00000,-0.00000,-0.17085,0.34781,-0.68643,-0.24047,-36.52798,0.19418,0.94962,-0.00146,0.00227,-0.31339,0.00000,0.00000,0.00000,0.00000,1,0,
07.10 14:18:42:566,8263,-0.02658,-0.01952,9.78792,-0.00000,0.00000,-0.00000,-0.17284,0.34878,-0.68544,-0.24142,-36.52703,0.19325,0.94962,-0.00147,0.00226,-0.31338,0.00000,0.00000,0.00000,0.00000,1,0,
07.10 14:18:42:575,8264,-0.04560,-0.03503,9.78947,-0.00000,0.00000,-0.00000,-0.17382,0.34784,-0.68844,-0.24070,-36.52561,0.19303,0.94963,-0.00147,0.00226,-0.31337,0.00000,0.00000,0.00000,0.00000,1,0,
07.10 14:18:42:584,8265,-0.02457,-0.03970,9.79307,-0.00000,0.00000,-0.00000,-0.17036,0.34631,-0.68643,-0.24046,-36.52504,0.19338,0.94963,-0.00146,0.00226,-0.31337,0.00000,0.00000,0.00000,0.00000,1,0,
07.10 14:18:42:595,8266,-0.03785,-0.02377,9.80268,-0.00000,0.00000,-0.00000,-0.17431,0.34535,-0.68895,-0.24081,-36.52502,0.19369,0.94963,-0.00147,0.00226,-0.31337,0.00000,0.00000,0.00000,0.00000,1,0,
07.10 14:18:42:605,8267,-0.00768,-0.02724,9.80046,-0.00000,0.00000,-0.00000,-0.17234,0.34779,-0.68594,-0.24225,-36.52506,0.19316,0.94963,-0.00148,0.00226,-0.31337,0.00000,0.00000,0.00000,0.00000,1,0,
07.10 14:18:42:616,8268,-0.03680,-0.04447,9.80120,-0.00000,0.00000,-0.00000,-0.17134,0.34733,-0.68743,-0.24141,-36.52544,0.19302,0.94963,-0.00147,0.00226,-0.31337,0.00000,0.00000,0.00000,0.00000,1,0,
07.10 14:18:42:626,8269,-0.03273,-0.04028,9.79016,-0.00000,0.00000,-0.00000,-0.17135,0.34680,-0.68594,-0.24166,-36.52575,0.19261,0.94963,-0.00148,0.00226,-0.31337,0.00000,0.00000,0.00000,0.00000,1,0,
07.10 14:18:42:634,8270,-0.02179,-0.02789,9.80983,-0.00000,0.00000,-0.00000,-0.17134,0.34783,-0.68743,-0.24021,-36.52578,0.19315,0.94963,-0.00146,0.00226,-0.31337,0.00000,0.00000,0.00000,0.00000,1,0,
07.10 14:18:42:645,8271,-0.03289,-0.02898,9.79898,-0.00000,0.00000,-0.00000,-0.17136,0.34827,-0.68494,-0.24095,-36.52586,0.19296,0.94963,-0.00147,0.00226,-0.31337,0.00000,0.00000,0.00000,0.00000,1,0,
07.10 14:18:42:655,8272,-0.02648,-0.03007,9.78920,-0.00000,0.00000,-0.00000,-0.17333,0.34883,-0.68794,-0.24102,-36.52497,0.19295,0.94963,-0.00147,0.00226,-0.31337,0.00000,0.00000,0.00000,0.00000,1,0,
07.10 14:18:42:665,8273,-0.02694,-0.04795,9.81422,-0.00000,0.00000,-0.00000,-0.17184,0.34882,-0.68743,-0.23888,-36.52548,0.19269,0.94963,-0.00145,0.00225,-0.31337,0.00000,0.00000,0.00000,0.00000,1,0,
07.10 14:18:42:674,8274,-0.02585,-0.02453,9.80928,-0.00000,0.00000,-0.00000,-0.17184,0.34731,-0.68694,-0.23752,-36.52597,0.19364,0.94963,-0.00144,0.00225,-0.31337,0.00000,0.00000,0.00000,0.00000,1,0,
07.10 14:18:42:685,8275,-0.03183,-0.02757,9.80515,-0.00000,0.00000,-0.00000,-0.17085,0.34883,-0.68742,-0.23790,-36.52598,0.19331,0.94963,-0.00144,0.00225,-0.31337,0.00000,0.00000,0.00000,0.00000,1,0,
07.10 14:18:42:695,8276,-0.02034,-0.03481,9.80220,-0.00000,0.00000,-0.00000,-0.17184,0.34882,-0.68743,-0.23651,-36.52639,0.19293,0.94962,-0.00143,0.00225,-0.31338,0.00000,0.00000,0.00000,0.00000,1,0,
07.10 14:18:42:706,8277,-0.01469,-0.04928,9.81584,-0.00000,0.00000,-0.00000,-0.17184,0.34732,-0.68743,-0.23568,-36.52677,0.19241,0.94962,-0.00143,0.00224,-0.31338,0.00000,0.00000,0.00000,0.00000,1,0,
07.10 14:18:42:714,8278,-0.02584,-0.02964,9.79948,-0.00000,0.00000,-0.00000,-0.17185,0.34878,-0.68544,-0.23589,-36.52691,0.19164,0.94962,-0.00143,0.00223,-0.31338,0.00000,0.00000,0.00000,0.00000,1,0,
07.10 14:18:42:724,8279,-0.03569,-0.04174,9.79815,-0.00000,0.00000,-0.00000,-0.17284,0.34680,-0.68645,-0.23469,-36.52694,0.19136,0.94962,-0.00142,0.00223,-0.31338,0.00000,0.00000,0.00000,0.00000,1,0,
07.10 14:18:42:735,8280,-0.03593,-0.02421,9.79335,-0.00000,0.00000,-0.00000,-0.17284,0.34931,-0.68694,-0.23538,-36.52680,0.19163,0.94962,-0.00143,0.00223,-0.31338,0.00000,0.00000,0.00000,0.00000,1,0,
07.10 14:18:42:745,8281,-0.04513,-0.02767,9.80568,-0.00000,0.00000,-0.00000,-0.17134,0.34834,-0.68842,-0.23449,-36.52669,0.19114,0.94962,-0.00142,0.00223,-0.31338,0.00000,0.00000,0.00000,0.00000,1,0,
07.10 14:18:42:755,8282,-0.02660,-0.03255,9.80682,-0.00000,0.00000,-0.00000,-0.17134,0.34684,-0.68793,-0.23364,-36.52782,0.19140,0.94962,-0.00141,0.00223,-0.31339,0.00000,0.00000,0.00000,0.00000,1,0,
07.10 14:18:42:764,8283,-0.03907,-0.03286,9.80599,-0.00000,0.00000,-0.00000,-0.17233,0.34733,-0.68793,-0.23462,-36.52800,0.19228,0.94962,-0.00142,0.00224,-0.31339,0.00000,0.00000,0.00000,0.00000,1,0,
07.10 14:18:42:775,8284,-0.04244,-0.03376,9.80000,-0.00000,0.00000,-0.00000,-0.17185,0.34830,-0.68643,-0.23452,-36.52773,0.19241,0.94962,-0.00142,0.00224,-0.31339,0.00000,0.00000,0.00000,0.00000,1,0,
07.10 14:18:42:786,8285,-0.02016,-0.02670,9.79123,-0.00000,0.00000,-0.00000,-0.17184,0.34931,-0.68693,-0.23585,-36.52749,0.19281,0.94962,-0.00143,0.00224,-0.31339,0.00000,0.00000,0.00000,0.00000,1,0,
07.10 14:18:42:795,8286,-0.02793,-0.04159,9.80098,-0.00000,0.00000,-0.00000,-0.16985,0.34583,-0.68742,-0.23511,-36.52787,0.19187,0.94962,-0.00142,0.00223,-0.31339,0.00000,0.00000,0.00000,0.00000,1,0,
07.10 14:18:42:805,8287,-0.03372,-0.02932,9.79834,-0.00000,0.00000,-0.00000,-0.17184,0.34933,-0.68792,-0.23569,-36.52766,0.19216,0.94962,-0.00143,0.00224,-0.31339,0.00000,0.00000,0.00000,0.00000,1,0,
07.10 14:18:42:815,8288,-0.03235,-0.05110,9.79342,-0.00000,0.00000,-0.00000,-0.17086,0.34880,-0.68593,-0.23531,-36.52788,0.19272,0.94962,-0.00142,0.00224,-0.31339,0.00000,0.00000,0.00000,0.00000,1,0,
07.10 14:18:42:824,8289,-0.03221,-0.03061,9.81450,-0.00000,0.00000,-0.00000,-0.17132,0.34843,-0.69240,-0.23408,-36.52877,0.19277,0.94962,-0.00141,0.00224,-0.31340,0.00000,0.00000,0.00000,0.00000,1,0,
07.10 14:18:42:835,8290,-0.02899,-0.04123,9.80000,-0.00000,0.00000,-0.00000,-0.17283,0.34733,-0.68794,-0.23433,-36.52902,0.19240,0.94962,-0.00142,0.00224,-0.31340,0.00000,0.00000,0.00000,0.00000,1,0,
07.10 14:18:42:845,8291,-0.02991,-0.02350,9.79795,-0.00000,0.00000,-0.00000,-0.17184,0.34783,-0.68793,-0.23458,-36.52881,0.19189,0.94962,-0.00142,0.00223,-0.31340,0.00000,0.00000,0.00000,0.00000,1,0,
07.10 14:18:42:856,8292,-0.02139,-0.02751,9.80589,-0.00000,0.00000,-0.00000,-0.17333,0.34981,-0.68694,-0.23235,-36.52943,0.19098,0.94962,-0.00140,0.00222,-0.31340,0.00000,0.00000,0.00000,0.00000,1,0,
07.10 14:18:42:865,8293,-0.03382,-0.02462,9.80003,-0.00000,0.00000,-0.00000,-0.16888,0.34827,-0.68442,-0.23332,-36.52866,0.19143,0.94962,-0.00141,0.00222,-0.31340,0.00000,0.00000,0.00000,0.00000,1,0,
07.10 14:18:42:874,8294,-0.02476,-0.02934,9.78472,-0.00000,0.00000,-0.00000,-0.17036,0.34729,-0.68543,-0.23415,-36.52857,0.19096,0.94962,-0.00142,0.00222,-0.31340,0.00000,0.00000,0.00000,0.00000,1,0,
07.10 14:18:42:885,8295,-0.01435,-0.03143,9.80308,-0.00000,0.00000,-0.00000,-0.17036,0.34681,-0.68643,-0.23388,-36.52912,0.19155,0.94962,-0.00141,0.00223,-0.31340,0.00000,0.00000,0.00000,0.00000,1,0,
07.10 14:18:42:895,8296,-0.02636,-0.03318,9.79033,-0.00000,0.00000,-0.00000,-0.17284,0.34830,-0.68644,-0.23377,-36.52855,0.19178,0.94962,-0.00141,0.00223,-0.31340,0.00000,0.00000,0.00000,0.00000,1,0,
07.10 14:18:42:904,8297,-0.00800,-0.03658,9.80024,-0.00000,0.00000,-0.00000,-0.17234,0.34782,-0.68743,-0.23250,-36.52837,0.18959,0.94962,-0.00141,0.00221,-0.31339,0.00000,0.00000,0.00000,0.00000,1,0,
07.10 14:18:42:914,8298,-0.02345,-0.02777,9.80361,-0.00000,0.00000,-0.00000,-0.17185,0.34827,-0.68494,-0.23272,-36.52789,0.18880,0.94962,-0.00141,0.00220,-0.31339,0.00000,0.00000,0.00000,0.00000,1,0,
07.10 14:18:42:924,8299,-0.02097,-0.01739,9.80558,-0.00000,0.00000,-0.00000,-0.17334,0.34729,-0.68595,-0.23375,-36.52742,0.18867,0.94962,-0.00142,0.00220,-0.31339,0.00000,0.00000,0.00000,0.00000,1,0,
07.10 14:18:42:935,8300,-0.03339,-0.03956,9.79538,-0.00000,0.00000,-0.00000,-0.17284,0.34928,-0.68544,-0.23238,-36.52798,0.18871,0.94962,-0.00141,0.00220,-0.31339,0.00000,0.00000,0.00000,0.00000,1,0,
07.10 14:18:42:945,8301,-0.00898,-0.03288,9.79934,-0.00000,0.00000,-0.00000,-0.17036,0.35029,-0.68542,-0.23242,-36.52811,0.18794,0.94962,-0.00141,0.00219,-0.31339,0.00000,0.00000,0.00000,0.00000,1,0,
07.10 14:18:42:955,8302,-0.02172,-0.01577,9.80985,-0.00000,0.00000,-0.00000,-0.17131,0.34894,-0.69340,-0.23271,-36.52797,0.18790,0.94962,-0.00141,0.00219,-0.31339,0.00000,0.00000,0.00000,0.00000,1,0,
07.10 14:18:42:964,8303,-0.00886,-0.03298,9.78820,-0.00000,0.00000,-0.00000,-0.17085,0.34881,-0.68642,-0.23192,-36.52834,0.18742,0.94962,-0.00141,0.00219,-0.31339,0.00000,0.00000,0.00000,0.00000,1,0,
07.10 14:18:42:975,8304,-0.00121,-0.02307,9.80008,-0.00000,0.00000,-0.00000,-0.17135,0.34881,-0.68693,-0.23296,-36.52867,0.18831,0.94962,-0.00142,0.00220,-0.31340,0.00000,0.00000,0.00000,0.00000,1,0,
07.10 14:18:42:985,8305,-0.02648,-0.02962,9.80375,-0.00000,0.00000,-0.00000,-0.17085,0.34981,-0.68692,-0.23260,-36.52834,0.18834,0.94962,-0.00141,0.00220,-0.31339,0.00000,0.00000,0.00000,0.00000,1,0,
07.10 14:18:42:994,8306,-0.04671,-0.03904,9.80680,-0.00000,0.00000,-0.00000,-0.17032,0.34745,-0.69339,-0.23242,-36.52880,0.18940,0.94962,-0.00141,0.00221,-0.31340,0.00000,0.00000,0.00000,0.00000,1,0,
07.10 14:18:43:005,8307,-0.02982,-0.02121,9.80537,-0.00000,0.00000,-0.00000,-0.17234,0.34579,-0.68595,-0.23319,-36.52867,0.18899,0.94962,-0.00142,0.00220,-0.31340,0.00000,0.00000,0.00000,0.00000,1,0,
07.10 14:18:43:015,8308,-0.03101,-0.03854,9.80244,-0.00000,0.00000,-0.00000,-0.17284,0.34981,-0.68693,-0.23174,-36.52842,0.18952,0.94962,-0.00140,0.00220,-0.31340,0.00000,0.00000,0.00000,0.00000,1,0,
07.10 14:18:43:026,8309,-0.03224,-0.02778,9.79183,-0.00000,0.00000,-0.00000,-0.17036,0.35029,-0.68542,-0.22976,-36.52930,0.18990,0.94962,-0.00138,0.00220,-0.31340,0.00000,0.00000,0.00000,0.00000,1,0,
07.10 14:18:43:036,8310,-0.04210,-0.02600,9.79617,-0.00000,0.00000,-0.00000,-0.17134,0.34832,-0.68743,-0.23023,-36.52787,0.18986,0.94962,-0.00139,0.00220,-0.31339,0.00000,0.00000,0.00000,0.00000,1,0,
07.10 14:18:43:044,8311,-0.02591,-0.03500,9.79311,-0.00000,0.00000,-0.00000,-0.17184,0.34831,-0.68693,-0.23041,-36.52732,0.18974,0.94962,-0.00139,0.00220,-0.31339,0.00000,0.00000,0.00000,0.00000,1,0,
07.10 14:18:43:054,8312,-0.01106,-0.03790,9.78687,-0.00000,0.00000,-0.00000,-0.17234,0.34881,-0.68693,-0.23061,-36.52769,0.18982,0.94962,-0.00139,0.00220,-0.31339,0.00000,0.00000,0.00000,0.00000,1,0,
07.10 14:18:43:064,8313,-0.03160,-0.03092,9.80732,-0.00000,0.00000,-0.00000,-0.17184,0.34484,-0.68794,-0.22975,-36.52810,0.19021,0.94962,-0.00138,0.00220,-0.31339,0.00000,0.00000,0.00000,0.00000,1,0,
07.10 14:18:43:074,8314,-0.02125,-0.03042,9.80046,-0.00000,0.00000,-0.00000,-0.17133,0.34838,-0.68991,-0.23004,-36.52813,0.19026,0.94962,-0.00139,0.00221,-0.31339,0.00000,0.00000,0.00000,0.00000,1,0,
07.10 14:18:43:085,8315,-0.04442,-0.03064,9.80752,-0.00000,0.00000,-0.00000,-0.17233,0.34936,-0.68942,-0.22948,-36.52762,0.19026,0.94962,-0.00138,0.00220,-0.31339,0.00000,0.00000,0.00000,0.00000,1,0,
07.10 14:18:43:095,8316,-0.05420,-0.03299,9.79235,-0.00000,0.00000,-0.00000,-0.17084,0.34935,-0.68841,-0.22935,-36.52755,0.19041,0.94962,-0.00138,0.00221,-0.31339,0.00000,0.00000,0.00000,0.00000,1,0,
07.10 14:18:43:106,8317,-0.00873,-0.05175,9.80272,-0.00000,0.00000,-0.00000,-0.17233,0.34784,-0.68843,-0.23090,-36.52682,0.19040,0.94962,-0.00139,0.00221,-0.31338,0.00000,0.00000,0.00000,0.00000,1,0,
07.10 14:18:43:115,8318,-0.01930,-0.02375,9.80906,-0.00000,0.00000,-0.00000,-0.17185,0.34730,-0.68644,-0.22999,-36.52690,0.19018,0.94962,-0.00139,0.00221,-0.31338,0.00000,0.00000,0.00000,0.00000,1,0,
07.10 14:18:43:125,8319,-0.02137,-0.03201,9.79199,-0.00000,0.00000,-0.00000,-0.16935,0.34837,-0.68940,-0.23008,-36.52660,0.18995,0.94962,-0.00139,0.00220,-0.31338,0.00000,0.00000,0.00000,0.00000,1,0,
07.10 14:18:43:135,8320,-0.01757,-0.02851,9.79903,-0.00000,0.00000,-0.00000,-0.17035,0.34884,-0.68791,-0.23168,-36.52622,0.18930,0.94963,-0.00140,0.00220,-0.31338,0.00000,0.00000,0.00000,0.00000,1,0,
07.10 14:18:43:144,8321,-0.01912,-0.00928,9.80136,-0.00000,0.00000,-0.00000,-0.16787,0.34686,-0.68840,-0.23053,-36.52626,0.18933,0.94963,-0.00139,0.00220,-0.31338,0.00000,0.00000,0.00000,0.00000,1,0,
07.10 14:18:43:154,8322,-0.03553,-0.03634,9.80687,-0.00000,0.00000,-0.00000,-0.17234,0.34580,-0.68645,-0.22964,-36.52586,0.18916,0.94963,-0.00139,0.00220,-0.31337,0.00000,0.00000,0.00000,0.00000,1,0,
07.10 14:18:43:166,8323,-0.00637,-0.04986,9.79164,-0.00000,0.00000,-0.00000,-0.17185,0.34730,-0.68644,-0.22958,-36.52546,0.19006,0.94963,-0.00138,0.00220,-0.31337,0.00000,0.00000,0.00000,0.00000,1,0,
07.10 14:18:43:176,8324,-0.03514,-0.02579,9.78615,-0.00000,0.00000,-0.00000,-0.17036,0.34880,-0.68592,-0.22810,-36.52570,0.19015,0.94963,-0.00137,0.00220,-0.31337,0.00000,0.00000,0.00000,0.00000,1,0,
07.10 14:18:43:186,8325,-0.03167,-0.03837,9.80170,-0.00000,0.00000,-0.00000,-0.17134,0.34834,-0.68842,-0.22905,-36.52542,0.19003,0.94963,-0.00138,0.00220,-0.31337,0.00000,0.00000,0.00000,0.00000,1,0,
07.10 14:18:43:196,8326,-0.03507,-0.04927,9.79712,-0.00000,0.00000,-0.00000,-0.17085,0.34834,-0.68792,-0.22863,-36.52501,0.19038,0.94963,-0.00137,0.00220,-0.31337,0.00000,0.00000,0.00000,0.00000,1,0,
07.10 14:18:43:204,8327,-0.01438,-0.02950,9.80072,-0.00000,0.00000,-0.00000,-0.16936,0.34733,-0.68741,-0.22811,-36.52496,0.19049,0.94963,-0.00137,0.00220,-0.31337,0.00000,0.00000,0.00000,0.00000,1,0,
07.10 14:18:43:215,8328,-0.02969,-0.03989,9.80823,-0.00000,0.00000,-0.00000,-0.17185,0.34830,-0.68643,-0.22642,-36.52568,0.19060,0.94963,-0.00136,0.00220,-0.31337,0.00000,0.00000,0.00000,0.00000,1,0,
07.10 14:18:43:224,8329,-0.03635,-0.03953,9.79970,-0.00000,0.00000,-0.00000,-0.17085,0.34934,-0.68792,-0.25015,-36.52070,0.18078,0.94964,-0.00158,0.00218,-0.31333,0.00000,0.00000,0.00000,0.00000,1,0,
07.10 14:18:43:235,8330,-0.02122,-0.03772,9.80568,-0.00000,0.00000,-0.00000,-0.17282,0.34685,-0.68894,-0.25011,-36.52004,0.18107,0.94964,-0.00158,0.00218,-0.31333,0.00000,0.00000,0.00000,0.00000,1,0,
07.10 14:18:43:245,8331,-0.03309,-0.03293,9.80418,-0.00000,0.00000,-0.00000,-0.17234,0.34732,-0.68744,-0.24888,-36.51991,0.18110,0.94964,-0.00157,0.00218,-0.31332,0.00000,0.00000,0.00000,0.00000,1,0,
07.10 14:18:43:256,8332,-0.03184,-0.03818,9.79009,-0.00000,0.00000,-0.00000,-0.17233,0.34934,-0.68842,-0.24816,-36.52036,0.18198,0.94964,-0.00156,0.00219,-0.31333,0.00000,0.00000,0.00000,0.00000,1,0,
07.10 14:18:43:265,8333,-0.03880,-0.02098,9.79731,-0.00000,0.00000,-0.00000,-0.16937,0.34981,-0.68641,-0.24638,-36.52091,0.18138,0.94964,-0.00155,0.00218,-0.31333,0.00000,0.00000,0.00000,0.00000,1,0,
07.10 14:18:43:277,8334,-0.04368,-0.02524,9.79142,-0.00000,0.00000,-0.00000,-0.17285,0.34727,-0.68495,-0.24581,-36.52157,0.18124,0.94964,-0.00154,0.00217,-0.31334,0.00000,0.00000,0.00000,0.00000,1,0,
07.10 14:18:43:284,8335,-0.00448,-0.03004,9.79412,-0.00000,0.00000,-0.00000,-0.17085,0.34881,-0.68642,-0.24560,-36.52176,0.18103,0.94964,-0.00154,0.00217,-0.31334,0.00000,0.00000,0.00000,0.00000,1,0,
07.10 14:18:43:294,8336,-0.02759,-0.03432,9.79519,-0.00000,0.00000,-0.00000,-0.17284,0.35029,-0.68594,-0.24432,-36.52214,0.18043,0.94964,-0.00153,0.00216,-0.31334,0.00000,0.00000,0.00000,0.00000,1,0,
07.10 14:18:43:304,8337,-0.03204,-0.02839,9.80418,-0.00000,0.00000,-0.00000,-0.17233,0.34885,-0.68892,-0.24336,-36.52207,0.18105,0.94964,-0.00152,0.00217,-0.31334,0.00000,0.00000,0.00000,0.00000,1,0,
07.10 14:18:43:315,8338,-0.03326,-0.03706,9.79512,-0.00000,0.00000,-0.00000,-0.17082,0.34894,-0.69289,-0.24387,-36.52160,0.18094,0.94964,-0.00153,0.00217,-0.31334,0.00000,0.00000,0.00000,0.00000,1,0,
07.10 14:18:43:326,8339,-0.03011,-0.03467,9.79309,-0.00000,0.00000,-0.00000,-0.16987,0.35029,-0.68542,-0.24213,-36.52232,0.18172,0.94964,-0.00151,0.00217,-0.31334,0.00000,0.00000,0.00000,0.00000,1,0,
07.10 14:18:43:335,8340,0.00115,-0.03893,9.79388,-0.00000,0.00000,-0.00000,-0.16888,0.34976,-0.68392,-0.24242,-36.52193,0.18166,0.94964,-0.00151,0.00217,-0.31334,0.00000,0.00000,0.00000,0.00000,1,0,
07.10 14:18:43:346,8341,-0.01685,-0.02581,9.80687,-0.00000,0.00000,-0.00000,-0.16937,0.34878,-0.68492,-0.24387,-36.52158,0.18180,0.94964,-0.00152,0.00217,-0.31334,0.00000,0.00000,0.00000,0.00000,1,0,
07.10 14:18:43:356,8342,-0.02994,-0.02697,9.80875,-0.00000,0.00000,-0.00000,-0.17136,0.35078,-0.68543,-0.24297,-36.52185,0.18145,0.94964,-0.00152,0.00217,-0.31334,0.00000,0.00000,0.00000,0.00000,1,0,
07.10 14:18:43:365,8343,-0.01643,-0.02704,9.79011,-0.00000,0.00000,-0.00000,-0.17284,0.34828,-0.68545,-0.24226,-36.52137,0.18109,0.94964,-0.00151,0.00216,-0.31334,0.00000,0.00000,0.00000,0.00000,1,0,
07.10 14:18:43:374,8344,-0.02142,-0.04174,9.81083,-0.00000,0.00000,-0.00000,-0.16985,0.35085,-0.68840,-0.24111,-36.52040,0.18118,0.94964,-0.00150,0.00216,-0.31333,0.00000,0.00000,0.00000,0.00000,1,0,
07.10 14:18:43:384,8345,-0.01806,-0.04014,9.79664,-0.00000,0.00000,-0.00000,-0.17083,0.34942,-0.69190,-0.24040,-36.51903,0.18143,0.94964,-0.00150,0.00216,-0.31332,0.00000,0.00000,0.00000,0.00000,1,0,
07.10 14:18:43:394,8346,-0.02280,-0.02590,9.79917,-0.00000,0.00000,-0.00000,-0.16983,0.34641,-0.69140,-0.24065,-36.51889,0.18131,0.94965,-0.00150,0.00216,-0.31332,0.00000,0.00000,0.00000,0.00000,1,0,
07.10 14:18:43:405,8347,-0.01953,-0.02880,9.80082,-0.00000,0.00000,-0.00000,-0.17086,0.34979,-0.68592,-0.24066,-36.51926,0.18097,0.94964,-0.00150,0.00216,-0.31332,0.00000,0.00000,0.00000,0.00000,1,0,
07.10 14:18:43:415,8348,-0.04734,-0.03261,9.78928,-0.00000,0.00000,-0.00000,-0.17186,0.35023,-0.68294,-0.23906,-36.51940,0.18092,0.94964,-0.00149,0.00215,-0.31332,0.00000,0.00000,0.00000,0.00000,1,0,
07.10 14:18:43:425,8349,-0.03660,-0.02730,9.79331,-0.00000,0.00000,-0.00000,-0.17185,0.34779,-0.68594,-0.23760,-36.51981,0.18044,0.94964,-0.00148,0.00214,-0.31332,0.00000,0.00000,0.00000,0.00000,1,0,
07.10 14:18:43:436,8350,-0.04168,-0.05252,9.78975,-0.00000,0.00000,-0.00000,-0.17133,0.35039,-0.69090,-0.23804,-36.52051,0.18021,0.94964,-0.00148,0.00214,-0.31333,0.00000,0.00000,0.00000,0.00000,1,0,
07.10 14:18:43:445,8351,-0.03595,-0.02644,9.79285,-0.00000,0.00000,-0.00000,-0.17185,0.34927,-0.68494,-0.23900,-36.52011,0.17960,0.94964,-0.00149,0.00214,-0.31333,0.00000,0.00000,0.00000,0.00000,1,0,
07.10 14:18:43:454,8352,-0.02087,-0.03819,9.80749,-0.00000,0.00000,-0.00000,-0.17134,0.34883,-0.68792,-0.23801,-36.52090,0.18057,0.94964,-0.00148,0.00215,-0.31333,0.00000,0.00000,0.00000,0.00000,1,0,
07.10 14:18:43:465,8353,-0.03358,-0.03331,9.79538,-0.00000,0.00000,-0.00000,-0.17234,0.34880,-0.68644,-0.23819,-36.52112,0.18103,0.94964,-0.00148,0.00215,-0.31333,0.00000,0.00000,0.00000,0.00000,1,0,
07.10 14:18:43:475,8354,-0.02407,-0.03732,9.79769,-0.00000,0.00000,-0.00000,-0.16986,0.35030,-0.68591,-0.23730,-36.52087,0.17982,0.94964,-0.00147,0.00214,-0.31333,0.00000,0.00000,0.00000,0.00000,1,0,
07.10 14:18:43:485,8355,-0.02333,-0.02666,9.77962,-0.00000,0.00000,-0.00000,-0.17134,0.35033,-0.68792,-0.23665,-36.52151,0.18017,0.94964,-0.00147,0.00214,-0.31334,0.00000,0.00000,0.00000,0.00000,1,0,
07.10 14:18:43:495,8356,-0.01090,-0.01553,9.78310,-0.00000,0.00000,-0.00000,-0.17036,0.34980,-0.68592,-0.23748,-36.52214,0.18003,0.94964,-0.00148,0.00214,-0.31334,0.00000,0.00000,0.00000,0.00000,1,0,
07.10 14:18:43:505,8357,-0.02681,-0.04786,9.79977,-0.00000,0.00000,-0.00000,-0.17234,0.34882,-0.68743,-0.23758,-36.52197,0.18076,0.94964,-0.00147,0.00215,-0.31334,0.00000,0.00000,0.00000,0.00000,1,0,
07.10 14:18:43:515,8358,-0.02249,-0.03874,9.79857,-0.00000,0.00000,-0.00000,-0.17184,0.34831,-0.68693,-0.23756,-36.52290,0.18074,0.94963,-0.00147,0.00215,-0.31335,0.00000,0.00000,0.00000,0.00000,1,0,
07.10 14:18:43:525,8359,-0.01695,-0.03549,9.79290,-0.00000,0.00000,-0.00000,-0.17184,0.34732,-0.68743,-0.23806,-36.52197,0.18064,0.94964,-0.00148,0.00215,-0.31334,0.00000,0.00000,0.00000,0.00000,1,0,
07.10 14:18:43:535,8360,-0.02244,-0.03233,9.80682,-0.00000,0.00000,-0.00000,-0.17134,0.34733,-0.68743,-0.23634,-36.52236,0.18167,0.94964,-0.00146,0.00215,-0.31334,0.00000,0.00000,0.00000,0.00000,1,0,
07.10 14:18:43:544,8361,-0.01832,-0.04140,9.79922,-0.00000,0.00000,-0.00000,-0.16937,0.34630,-0.68592,-0.23673,-36.52179,0.18185,0.94964,-0.00146,0.00215,-0.31334,0.00000,0.00000,0.00000,0.00000,1,0,
07.10 14:18:43:555,8362,-0.02016,-0.04914,9.80337,-0.00000,0.00000,-0.00000,-0.17036,0.34930,-0.68592,-0.23736,-36.52216,0.18213,0.94964,-0.00147,0.00216,-0.31334,0.00000,0.00000,0.00000,0.00000,1,0,
07.10 14:18:43:566,8363,-0.02261,-0.04413,9.79505,-0.00000,0.00000,-0.00000,-0.17135,0.34930,-0.68643,-0.23479,-36.52261,0.18171,0.94964,-0.00145,0.00215,-0.31335,0.00000,0.00000,0.00000,0.00000,1,0,
07.10 14:18:43:575,8364,-0.03177,-0.04074,9.79187,-0.00000,0.00000,-0.00000,-0.16838,0.34978,-0.68491,-0.23428,-36.52271,0.18174,0.94963,-0.00144,0.00215,-0.31335,0.00000,0.00000,0.00000,0.00000,1,0,
07.10 14:18:43:586,8365,-0.04311,-0.04086,9.79316,-0.00000,0.00000,-0.00000,-0.17036,0.34779,-0.68543,-0.23406,-36.52417,0.18277,0.94963,-0.00144,0.00215,-0.31336,0.00000,0.00000,0.00000,0.00000,1,0,
07.10 14:18:43:595,8366,-0.03288,-0.03524,9.81383,-0.00000,0.00000,-0.00000,-0.17037,0.34776,-0.68394,-0.23292,-36.52670,0.18240,0.94962,-0.00143,0.00215,-0.31338,0.00000,0.00000,0.00000,0.00000,1,0,
07.10 14:18:43:605,8367,-0.03937,-0.05309,9.79888,-0.00000,0.00000,-0.00000,-0.17383,0.34881,-0.68695,-0.23377,-36.52668,0.18280,0.94962,-0.00144,0.00215,-0.31338,0.00000,0.00000,0.00000,0.00000,1,0,
07.10 14:18:43:615,8368,-0.01236,-0.02721,9.79667,-0.00000,0.00000,-0.00000,-0.17036,0.34880,-0.68592,-0.23414,-36.52562,0.18199,0.94963,-0.00144,0.00215,-0.31337,0.00000,0.00000,0.00000,0.00000,1,0,
07.10 14:18:43:625,8369,-0.02366,-0.00671,9.80546,-0.00000,0.00000,-0.00000,-0.17185,0.34879,-0.68593,-0.23409,-36.52285,0.18047,0.94963,-0.00145,0.00214,-0.31335,0.00000,0.00000,0.00000,0.00000,1,0,
07.10 14:18:43:634,8370,0.00012,-0.02948,9.78482,-0.00000,0.00000,-0.00000,-0.17036,0.34829,-0.68543,-0.23489,-36.52190,0.18160,0.94964,-0.00145,0.00215,-0.31334,0.00000,0.00000,0.00000,0.00000,1,0,
07.10 14:18:43:645,8371,-0.01159,-0.04056,9.79576,-0.00000,0.00000,-0.00000,-0.17136,0.34877,-0.68494,-0.23443,-36.52066,0.18178,0.94964,-0.00145,0.00215,-0.31333,0.00000,0.00000,0.00000,0.00000,1,0,
07.10 14:18:43:656,8372,-0.03001,-0.04896,9.78751,-0.00000,0.00000,-0.00000,-0.17134,0.34784,-0.68792,-0.23263,-36.52159,0.18186,0.94964,-0.00143,0.00214,-0.31334,0.00000,0.00000,0.00000,0.00000,1,0,
07.10 14:18:43:665,8373,-0.03797,-0.04656,9.81684,-0.00000,0.00000,-0.00000,-0.17285,0.34676,-0.68446,-0.23290,-36.52286,0.18233,0.94963,-0.00143,0.00215,-0.31335,0.00000,0.00000,0.00000,0.00000,1,0,
07.10 14:18:43:675,8374,-0.03027,-0.05474,9.77657,-0.00000,0.00000,-0.00000,-0.17185,0.34777,-0.68494,-0.23311,-36.52159,0.18260,0.94964,-0.00143,0.00215,-0.31334,0.00000,0.00000,0.00000,0.00000,1,0,
07.10 14:18:43:685,8375,-0.02422,-0.02603,9.79311,-0.00000,0.00000,-0.00000,-0.16986,0.34782,-0.68692,-0.23389,-36.52115,0.18227,0.94964,-0.00144,0.00215,-0.31333,0.00000,0.00000,0.00000,0.00000,1,0,
07.10 14:18:43:694,8376,-0.02349,-0.01215,9.80151,-0.00000,0.00000,-0.00000,-0.17085,0.34881,-0.68642,-0.23387,-36.52147,0.18229,0.94964,-0.00144,0.00215,-0.31334,0.00000,0.00000,0.00000,0.00000,1,0,
07.10 14:18:43:704,8377,-0.02490,-0.03318,9.79979,-0.00000,0.00000,-0.00000,-0.17231,0.35091,-0.69190,-0.23404,-36.52075,0.18241,0.94964,-0.00144,0.00215,-0.31333,0.00000,0.00000,0.00000,0.00000,1,0,
07.10 14:18:43:715,8378,-0.02682,-0.03821,9.80587,-0.00000,0.00000,-0.00000,-0.17235,0.34725,-0.68395,-0.23470,-36.52137,0.18276,0.94964,-0.00145,0.00216,-0.31334,0.00000,0.00000,0.00000,0.00000,1,0,
07.10 14:18:43:725,8379,-0.02324,-0.04397,9.79071,-0.00000,0.00000,-0.00000,-0.17235,0.34929,-0.68594,-0.23428,-36.52195,0.18263,0.94964,-0.00144,0.00215,-0.31334,0.00000,0.00000,0.00000,0.00000,1,0,
07.10 14:18:43:735,8380,-0.03951,-0.02440,9.78823,-0.00000,0.00000,-0.00000,-0.16935,0.35088,-0.68989,-0.23402,-36.52198,0.18178,0.94964,-0.00144,0.00215,-0.31334,0.00000,0.00000,0.00000,0.00000,1,0,
07.10 14:18:43:745,8381,-0.03243,-0.04430,9.81505,-0.00000,0.00000,-0.00000,-0.17136,0.34726,-0.68395,-0.23386,-36.52324,0.18223,0.94963,-0.00144,0.00215,-0.31335,0.00000,0.00000,0.00000,0.00000,1,0,
07.10 14:18:43:755,8382,-0.03874,-0.04627,9.80732,-0.00000,0.00000,-0.00000,-0.17135,0.35231,-0.68691,-0.23549,-36.52363,0.18180,0.94963,-0.00145,0.00215,-0.31336,0.00000,0.00000,0.00000,0.00000,1,0,
07.10 14:18:43:765,8383,-0.00905,-0.02956,9.80422,-0.00000,0.00000,-0.00000,-0.17036,0.34979,-0.68542,-0.23603,-36.52596,0.18225,0.94963,-0.00146,0.00216,-0.31337,0.00000,0.00000,0.00000,0.00000,1,0,
07.10 14:18:43:776,8384,-0.02010,-0.04272,9.79605,-0.00000,0.00000,-0.00000,-0.17084,0.34885,-0.68841,-0.23557,-36.52781,0.18234,0.94962,-0.00145,0.00216,-0.31339,0.00000,0.00000,0.00000,0.00000,1,0,
07.10 14:18:43:784,8385,-0.02159,-0.02111,9.79910,-0.00000,0.00000,-0.00000,-0.17134,0.34735,-0.68842,-0.23566,-36.52976,0.18228,0.94962,-0.00145,0.00216,-0.31341,0.00000,0.00000,0.00000,0.00000,1,0,
07.10 14:18:43:795,8386,-0.00729,-0.04385,9.79748,-0.00000,0.00000,-0.00000,-0.17132,0.35042,-0.69239,-0.23699,-36.52807,0.18266,0.94962,-0.00146,0.00216,-0.31339,0.00000,0.00000,0.00000,0.00000,1,0,
07.10 14:18:43:805,8387,-0.02238,-0.04664,9.79438,-0.00000,0.00000,-0.00000,-0.17036,0.35129,-0.68591,-0.23594,-36.52792,0.18281,0.94962,-0.00146,0.00216,-0.31339,0.00000,0.00000,0.00000,0.00000,1,0,
07.10 14:18:43:815,8388,-0.01169,-0.03554,9.79824,-0.00000,0.00000,-0.00000,-0.17135,0.35029,-0.68593,-0.23560,-36.52710,0.18302,0.94962,-0.00145,0.00216,-0.31338,0.00000,0.00000,0.00000,0.00000,1,0,
07.10 14:18:43:825,8389,-0.04204,-0.03703,9.78575,-0.00000,0.00000,-0.00000,-0.17183,0.34935,-0.68892,-0.23592,-36.52701,0.18269,0.94962,-0.00146,0.00216,-0.31338,0.00000,0.00000,0.00000,0.00000,1,0,
07.10 14:18:43:836,8390,-0.03306,-0.04192,9.79624,-0.00000,0.00000,-0.00000,-0.17186,0.34824,-0.68345,-0.23520,-36.52840,0.18310,0.94962,-0.00145,0.00216,-0.31340,0.00000,0.00000,0.00000,0.00000,1,0,
07.10 14:18:43:845,8391,-0.03973,-0.03611,9.81276,-0.00000,0.00000,-0.00000,-0.17033,0.34893,-0.69239,-0.23392,-36.52865,0.18369,0.94962,-0.00144,0.00216,-0.31340,0.00000,0.00000,0.00000,0.00000,1,0,
07.10 14:18:43:855,8392,-0.01575,-0.04087,9.79877,-0.00000,0.00000,-0.00000,-0.16937,0.34728,-0.68492,-0.23461,-36.52852,0.18451,0.94962,-0.00144,0.00217,-0.31340,0.00000,0.00000,0.00000,0.00000,1,0,
07.10 14:18:43:865,8393,-0.04414,-0.04040,9.80437,-0.00000,0.00000,-0.00000,-0.17184,0.34981,-0.68693,-0.23557,-36.52901,0.18474,0.94962,-0.00145,0.00218,-0.31340,0.00000,0.00000,0.00000,0.00000,1,0,
07.10 14:18:43:876,8394,-0.01642,-0.04415,9.79507,-0.00000,0.00000,-0.00000,-0.17184,0.34932,-0.68743,-0.23443,-36.52739,0.18529,0.94962,-0.00144,0.00218,-0.31339,0.00000,0.00000,0.00000,0.00000,1,0,
07.10 14:18:43:885,8395,-0.02143,-0.03403,9.79555,-0.00000,0.00000,-0.00000,-0.17038,0.35122,-0.68243,-0.23441,-36.52660,0.18536,0.94962,-0.00144,0.00218,-0.31338,0.00000,0.00000,0.00000,0.00000,1,0,
07.10 14:18:43:895,8396,-0.02801,-0.03746,9.80442,-0.00000,0.00000,-0.00000,-0.16987,0.34927,-0.68442,-0.23350,-36.52541,0.18568,0.94963,-0.00143,0.00218,-0.31337,0.00000,0.00000,0.00000,0.00000,1,0,
07.10 14:18:43:905,8397,-0.00617,-0.02915,9.78034,-0.00000,0.00000,-0.00000,-0.17133,0.34740,-0.69091,-0.23194,-36.52772,0.18478,0.94962,-0.00142,0.00217,-0.31339,0.00000,0.00000,0.00000,0.00000,1,0,
07.10 14:18:43:915,8398,-0.03167,-0.04332,9.80139,-0.00000,0.00000,-0.00000,-0.17137,0.34774,-0.68345,-0.23373,-36.52730,0.18434,0.94962,-0.00143,0.00217,-0.31339,0.00000,0.00000,0.00000,0.00000,1,0,
07.10 14:18:43:926,8399,-0.01374,-0.03722,9.79662,-0.00000,0.00000,-0.00000,-0.17135,0.35031,-0.68692,-0.23292,-36.52584,0.18376,0.94963,-0.00143,0.00216,-0.31337,0.00000,0.00000,0.00000,0.00000,1,0,
07.10 14:18:43:935,8400,-0.01683,-0.03616,9.80597,-0.00000,0.00000,-0.00000,-0.17135,0.34982,-0.68742,-0.23112,-36.52695,0.18417,0.94962,-0.00141,0.00216,-0.31338,0.00000,0.00000,0.00000,0.00000,1,0,
07.10 14:18:43:944,8401,-0.02885,-0.02201,9.78880,-0.00000,0.00000,-0.00000,-0.16984,0.34739,-0.69040,-0.23062,-36.52666,0.18475,0.94962,-0.00141,0.00216,-0.31338,0.00000,0.00000,0.00000,0.00000,1,0,
07.10 14:18:43:955,8402,-0.02937,-0.04205,9.79524,-0.00000,0.00000,-0.00000,-0.16887,0.34682,-0.68691,-0.22912,-36.52601,0.18604,0.94963,-0.00139,0.00217,-0.31338,0.00000,0.00000,0.00000,0.00000,1,0,
07.10 14:18:43:966,8403,-0.03006,-0.02767,9.80229,-0.00000,0.00000,-0.00000,-0.17132,0.34842,-0.69190,-0.22735,-36.52669,0.18674,0.94962,-0.00137,0.00217,-0.31338,0.00000,0.00000,0.00000,0.00000,1,0,
07.10 14:18:43:975,8404,-0.04784,-0.02356,9.78665,-0.00000,0.00000,-0.00000,-0.16987,0.34829,-0.68542,-0.22833,-36.52708,0.18661,0.94962,-0.00138,0.00217,-0.31338,0.00000,0.00000,0.00000,0.00000,1,0,
07.10 14:18:43:985,8405,-0.03020,-0.03376,9.79161,-0.00000,0.00000,-0.00000,-0.17182,0.34989,-0.69091,-0.22916,-36.52630,0.18689,0.94963,-0.00139,0.00218,-0.31338,0.00000,0.00000,0.00000,0.00000,1,0,
07.10 14:18:43:996,8406,-0.02532,-0.00249,9.78909,-0.00000,0.00000,-0.00000,-0.17185,0.34978,-0.68543,-0.22813,-36.52551,0.18669,0.94963,-0.00138,0.00217,-0.31337,0.00000,0.00000,0.00000,0.00000,1,0,
07.10 14:18:44:005,8407,-0.02601,-0.02033,9.79750,-0.00000,0.00000,-0.00000,-0.17036,0.35130,-0.68641,-0.22868,-36.52576,0.18677,0.94963,-0.00138,0.00217,-0.31337,0.00000,0.00000,0.00000,0.00000,1,0,
07.10 14:18:44:015,8408,-0.02391,-0.01297,9.81157,-0.00000,0.00000,-0.00000,-0.17135,0.34881,-0.68693,-0.22886,-36.52603,0.18637,0.94963,-0.00139,0.00217,-0.31338,0.00000,0.00000,0.00000,0.00000,1,0,
07.10 14:18:44:024,8409,-0.03251,-0.03964,9.79886,-0.00000,0.00000,-0.00000,-0.16937,0.34880,-0.68591,-0.22995,-36.52579,0.18583,0.94963,-0.00140,0.00217,-0.31337,0.00000,0.00000,0.00000,0.00000,1,0,
07.10 14:18:44:035,8410,-0.02197,-0.03100,9.80480,-0.00000,0.00000,-0.00000,-0.16936,0.34883,-0.68741,-0.23169,-36.52649,0.18675,0.94962,-0.00141,0.00218,-0.31338,0.00000,0.00000,0.00000,0.00000,1,0,
07.10 14:18:44:045,8411,-0.02336,-0.04266,9.80358,-0.00000,0.00000,-0.00000,-0.16987,0.35078,-0.68492,-0.23280,-36.52708,0.18731,0.94962,-0.00142,0.00219,-0.31338,0.00000,0.00000,0.00000,0.00000,1,0,
07.10 14:18:44:055,8412,-0.02160,-0.02376,9.79664,-0.00000,0.00000,-0.00000,-0.17136,0.34927,-0.68493,-0.23171,-36.53130,0.18751,0.94961,-0.00141,0.00219,-0.31342,0.00000,0.00000,0.00000,0.00000,1,0,
07.10 14:18:44:065,8413,-0.02894,-0.02501,9.78444,-0.00000,0.00000,-0.00000,-0.17033,0.35041,-0.69139,-0.23131,-36.53031,0.18785,0.94961,-0.00140,0.00219,-0.31341,0.00000,0.00000,0.00000,0.00000,1,0,
07.10 14:18:44:076,8414,-0.02099,-0.03425,9.79195,-0.00000,0.00000,-0.00000,-0.17131,0.34795,-0.69340,-0.23287,-36.53235,0.18693,0.94961,-0.00142,0.00219,-0.31343,0.00000,0.00000,0.00000,0.00000,1,0,
07.10 14:18:44:085,8415,-0.04168,-0.03139,9.80368,-0.00000,0.00000,-0.00000,-0.17034,0.34939,-0.69040,-0.23280,-36.53194,0.18716,0.94961,-0.00142,0.00219,-0.31342,0.00000,0.00000,0.00000,0.00000,1,0,
07.10 14:18:44:095,8416,-0.03087,-0.03801,9.77693,-0.00000,0.00000,-0.00000,-0.17036,0.35129,-0.68591,-0.23295,-36.53079,0.18706,0.94961,-0.00142,0.00219,-0.31341,0.00000,0.00000,0.00000,0.00000,1,0,
07.10 14:18:44:104,8417,-0.01788,-0.01971,9.80382,-0.00000,0.00000,-0.00000,-0.17086,0.34730,-0.68593,-0.23394,-36.53170,0.18681,0.94961,-0.00143,0.00219,-0.31342,0.00000,0.00000,0.00000,0.00000,1,0,
07.10 14:18:44:115,8418,-0.04314,-0.04859,9.79784,-0.00000,0.00000,-0.00000,-0.17235,0.35029,-0.68593,-0.23310,-36.53442,0.18569,0.94960,-0.00142,0.00218,-0.31344,0.00000,0.00000,0.00000,0.00000,1,0,
07.10 14:18:44:126,8419,-0.02191,-0.03754,9.80916,-0.00000,0.00000,-0.00000,-0.17186,0.34975,-0.68394,-0.23345,-36.53413,0.18571,0.94960,-0.00143,0.00218,-0.31344,0.00000,0.00000,0.00000,0.00000,1,0,
07.10 14:18:44:135,8420,-0.01687,-0.03450,9.79428,-0.00000,0.00000,-0.00000,-0.16986,0.35032,-0.68691,-0.23423,-36.53304,0.18595,0.94961,-0.00143,0.00218,-0.31343,0.00000,0.00000,0.00000,0.00000,1,0,
07.10 14:18:44:145,8421,-0.04468,-0.04577,9.80394,-0.00000,0.00000,-0.00000,-0.17036,0.35179,-0.68591,-0.23459,-36.52771,0.18622,0.94962,-0.00143,0.00218,-0.31339,0.00000,0.00000,0.00000,0.00000,1,0,
07.10 14:18:44:155,8422,-0.02290,-0.03265,9.80933,-0.00000,0.00000,-0.00000,-0.17134,0.34785,-0.68842,-0.23470,-36.52872,0.18628,0.94962,-0.00144,0.00219,-0.31340,0.00000,0.00000,0.00000,0.00000,1,0,
07.10 14:18:44:165,8423,-0.01699,-0.04489,9.80923,-0.00000,0.00000,-0.00000,-0.17037,0.35127,-0.68492,-0.23474,-36.54385,0.18600,0.94958,-0.00144,0.00218,-0.31352,0.00000,0.00000,0.00000,0.00000,1,0,
07.10 14:18:44:176,8424,-0.03007,-0.02879,9.79412,-0.00000,0.00000,-0.00000,-0.17084,0.34935,-0.68841,-0.23443,-36.55057,0.18592,0.94956,-0.00143,0.00218,-0.31358,0.00000,0.00000,0.00000,0.00000,1,0,
07.10 14:18:44:184,8425,-0.00642,-0.02142,9.78892,-0.00000,0.00000,-0.00000,-0.17135,0.34930,-0.68643,-0.23507,-36.54881,0.18609,0.94956,-0.00144,0.00219,-0.31356,0.00000,0.00000,0.00000,0.00000,1,0,
07.10 14:18:44:195,8426,-0.02137,-0.02475,9.79984,-0.00000,0.00000,-0.00000,-0.17185,0.34929,-0.68593,-0.23423,-36.54756,0.18515,0.94957,-0.00143,0.00218,-0.31355,0.00000,0.00000,0.00000,0.00000,1,0,
07.10 14:18:44:206,8427,-0.01805,-0.05671,9.78737,-0.00000,0.00000,-0.00000,-0.17283,0.34783,-0.68794,-0.23330,-36.55063,0.18482,0.94956,-0.00143,0.00217,-0.31358,0.00000,0.00000,0.00000,0.00000,1,0,
07.10 14:18:44:215,8428,-0.02717,-0.02645,9.80706,-0.00000,0.00000,-0.00000,-0.17284,0.34878,-0.68544,-0.23280,-36.55172,0.18402,0.94956,-0.00143,0.00216,-0.31359,0.00000,0.00000,0.00000,0.00000,1,0,
07.10 14:18:44:225,8429,-0.03197,-0.01307,9.81073,-0.00000,0.00000,-0.00000,-0.17234,0.34880,-0.68644,-0.23347,-36.55186,0.18424,0.94956,-0.00143,0.00217,-0.31359,0.00000,0.00000,0.00000,0.00000,1,0,
07.10 14:18:44:235,8430,-0.04127,-0.04260,9.79850,-0.00000,0.00000,-0.00000,-0.17234,0.34779,-0.68594,-0.23387,-36.55132,0.18416,0.94956,-0.00143,0.00217,-0.31359,0.00000,0.00000,0.00000,0.00000,1,0,
07.10 14:18:44:245,8431,-0.01335,-0.04033,9.77485,-0.00000,0.00000,-0.00000,-0.16986,0.34880,-0.68592,-0.23385,-36.55050,0.18462,0.94956,-0.00143,0.00217,-0.31358,0.00000,0.00000,0.00000,0.00000,1,0,
07.10 14:18:44:255,8432,-0.04996,-0.04612,9.79941,-0.00000,0.00000,-0.00000,-0.17383,0.34681,-0.68695,-0.23443,-36.55021,0.18385,0.94956,-0.00144,0.00216,-0.31358,0.00000,0.00000,0.00000,0.00000,1,0,
07.10 14:18:44:266,8433,-0.01740,-0.03887,9.80246,-0.00000,0.00000,-0.00000,-0.17135,0.35079,-0.68592,-0.23368,-36.55052,0.18381,0.94956,-0.00143,0.00216,-0.31358,0.00000,0.00000,0.00000,0.00000,1,0,
07.10 14:18:44:276,8434,-0.00827,-0.02975,9.79404,-0.00000,0.00000,-0.00000,-0.17037,0.34877,-0.68443,-0.23311,-36.55027,0.18403,0.94956,-0.00143,0.00216,-0.31358,0.00000,0.00000,0.00000,0.00000,1,0,
07.10 14:18:44:285,8435,-0.03136,-0.02989,9.78482,-0.00000,0.00000,-0.00000,-0.17085,0.34983,-0.68791,-0.23409,-36.54639,0.18442,0.94957,-0.00144,0.00217,-0.31354,0.00000,0.00000,0.00000,0.00000,1,0,
07.10 14:18:44:295,8436,-0.01640,-0.02345,9.79979,-0.00000,0.00000,-0.00000,-0.17184,0.34931,-0.68693,-0.23362,-36.54770,0.18468,0.94957,-0.00143,0.00217,-0.31355,0.00000,0.00000,0.00000,0.00000,1,0,
07.10 14:18:44:305,8437,-0.03221,-0.03694,9.80408,-0.00000,0.00000,-0.00000,-0.17036,0.35030,-0.68592,-0.23364,-36.54703,0.18504,0.94957,-0.00143,0.00217,-0.31355,0.00000,0.00000,0.00000,0.00000,1,0,
07.10 14:18:44:314,8438,-0.02612,-0.03760,9.80074,-0.00000,0.00000,-0.00000,-0.16933,0.35093,-0.69238,-0.23426,-36.55140,0.18597,0.94956,-0.00143,0.00218,-0.31359,0.00000,0.00000,0.00000,0.00000,1,0,
07.10 14:18:44:325,8439,-0.01972,-0.01804,9.80308,-0.00000,0.00000,-0.00000,-0.17035,0.34782,-0.68692,-0.23360,-36.55099,0.18600,0.94956,-0.00143,0.00218,-0.31358,0.00000,0.00000,0.00000,0.00000,1,0,
07.10 14:18:44:334,8440,-0.02524,-0.03606,9.80659,-0.00000,0.00000,-0.00000,-0.17234,0.34932,-0.68743,-0.23429,-36.54909,0.18640,0.94956,-0.00143,0.00219,-0.31357,0.00000,0.00000,0.00000,0.00000,1,0,
07.10 14:18:44:344,8441,-0.01537,-0.04293,9.79686,-0.00000,0.00000,-0.00000,-0.17035,0.34883,-0.68742,-0.23397,-36.54951,0.18618,0.94956,-0.00143,0.00218,-0.31357,0.00000,0.00000,0.00000,0.00000,1,0,
07.10 14:18:44:355,8442,-0.01668,-0.04276,9.79197,-0.00000,0.00000,-0.00000,-0.17084,0.34936,-0.68891,-0.23422,-36.55079,0.18510,0.94956,-0.00143,0.00217,-0.31358,0.00000,0.00000,0.00000,0.00000,1,0,
07.10 14:18:44:365,8443,-0.04636,-0.02314,9.78630,-0.00000,0.00000,-0.00000,-0.16987,0.35027,-0.68442,-0.23335,-36.55061,0.18502,0.94956,-0.00143,0.00217,-0.31358,0.00000,0.00000,0.00000,0.00000,1,0,
07.10 14:18:44:375,8444,-0.02731,-0.02533,9.79950,-0.00000,0.00000,-0.00000,-0.16887,0.34979,-0.68541,-0.23400,-36.55164,0.18547,0.94956,-0.00143,0.00218,-0.31359,0.00000,0.00000,0.00000,0.00000,1,0,
07.10 14:18:44:385,8445,-0.03912,-0.05715,9.80589,-0.00000,0.00000,-0.00000,-0.17182,0.34991,-0.69190,-0.23583,-36.54935,0.18494,0.94956,-0.00145,0.00218,-0.31357,0.00000,0.00000,0.00000,0.00000,1,0,
07.10 14:18:44:395,8446,-0.03048,-0.03054,9.81071,-0.00000,0.00000,-0.00000,-0.16787,0.35032,-0.68689,-0.23574,-36.55538,0.18483,0.94955,-0.00145,0.00218,-0.31362,0.00000,0.00000,0.00000,0.00000,1,0,
07.10 14:18:44:405,8447,-0.01889,-0.06336,9.79233,-0.00000,0.00000,-0.00000,-0.17135,0.34979,-0.68593,-0.23521,-36.55325,0.18535,0.94955,-0.00144,0.00218,-0.31360,0.00000,0.00000,0.00000,0.00000,1,0,
07.10 14:18:44:416,8448,-0.02569,-0.03883,9.80439,-0.00000,0.00000,-0.00000,-0.17135,0.34830,-0.68643,-0.23505,-36.55457,0.18536,0.94955,-0.00144,0.00218,-0.31361,0.00000,0.00000,0.00000,0.00000,1,0,
07.10 14:18:44:425,8449,-0.01410,-0.04692,9.78971,-0.00000,0.00000,-0.00000,-0.17334,0.34979,-0.68594,-0.23414,-36.55745,0.18528,0.94954,-0.00143,0.00218,-0.31364,0.00000,0.00000,0.00000,0.00000,1,0,
07.10 14:18:44:435,8450,-0.01008,-0.03730,9.79776,-0.00000,0.00000,-0.00000,-0.17280,0.35147,-0.69489,-0.23474,-36.54422,0.18433,0.94958,-0.00144,0.00217,-0.31353,0.00000,0.00000,0.00000,0.00000,1,0,
07.10 14:18:44:446,8451,-0.01916,-0.01867,9.79958,-0.00000,0.00000,-0.00000,-0.17135,0.34879,-0.68593,-0.23585,-36.54086,0.18486,0.94959,-0.00145,0.00218,-0.31350,0.00000,0.00000,0.00000,0.00000,1,0,
07.10 14:18:44:455,8452,-0.01923,-0.03060,9.79371,-0.00000,0.00000,-0.00000,-0.17085,0.34981,-0.68692,-0.23447,-36.54187,0.18462,0.94958,-0.00144,0.00217,-0.31351,0.00000,0.00000,0.00000,0.00000,1,0,
07.10 14:18:44:465,8453,-0.01727,-0.03350,9.79650,-0.00000,0.00000,-0.00000,-0.17234,0.34930,-0.68643,-0.23376,-36.53983,0.18361,0.94959,-0.00143,0.00216,-0.31349,0.00000,0.00000,0.00000,0.00000,1,0,
07.10 14:18:44:475,8454,-0.01609,-0.04096,9.78975,-0.00000,0.00000,-0.00000,-0.17184,0.34732,-0.68743,-0.23263,-36.53806,0.18360,0.94959,-0.00143,0.00216,-0.31348,0.00000,0.00000,0.00000,0.00000,1,0,
07.10 14:18:44:485,8455,-0.00798,-0.01596,9.80315,-0.00000,0.00000,-0.00000,-0.17037,0.34627,-0.68444,-0.23321,-36.53344,0.18240,0.94961,-0.00143,0.00215,-0.31344,0.00000,0.00000,0.00000,0.00000,1,0,
07.10 14:18:44:494,8456,-0.05485,-0.01912,9.79393,-0.00000,0.00000,-0.00000,-0.17186,0.34826,-0.68444,-0.23411,-36.53267,0.18318,0.94961,-0.00144,0.00216,-0.31343,0.00000,0.00000,0.00000,0.00000,1,0,
07.10 14:18:44:505,8457,-0.02633,-0.02613,9.79178,-0.00000,0.00000,-0.00000,-0.17135,0.34828,-0.68543,-0.23254,-36.53101,0.18348,0.94961,-0.00143,0.00216,-0.31342,0.00000,0.00000,0.00000,0.00000,1,0,
07.10 14:18:44:515,8458,-0.01921,-0.03353,9.80523,-0.00000,0.00000,-0.00000,-0.17285,0.34977,-0.68494,-0.23178,-36.53138,0.18281,0.94961,-0.00142,0.00215,-0.31342,0.00000,0.00000,0.00000,0.00000,1,0,
07.10 14:18:44:524,8459,-0.01912,-0.03753,9.79700,-0.00000,0.00000,-0.00000,-0.16986,0.34881,-0.68642,-0.23187,-36.53649,0.18231,0.94960,-0.00142,0.00215,-0.31346,0.00000,0.00000,0.00000,0.00000,1,0,
07.10 14:18:44:535,8460,-0.04060,-0.02536,9.78420,-0.00000,0.00000,-0.00000,-0.17086,0.34976,-0.68443,-0.23337,-36.54059,0.18184,0.94959,-0.00144,0.00215,-0.31350,0.00000,0.00000,0.00000,0.00000,1,0,
07.10 14:18:44:545,8461,-0.01539,-0.05155,9.81100,-0.00000,0.00000,-0.00000,-0.17085,0.34981,-0.68692,-0.23319,-36.54084,0.18218,0.94959,-0.00143,0.00215,-0.31350,0.00000,0.00000,0.00000,0.00000,1,0,
07.10 14:18:44:555,8462,-0.02805,-0.03199,9.80349,-0.00000,0.00000,-0.00000,-0.16986,0.34833,-0.68741,-0.23216,-36.54522,0.18175,0.94957,-0.00143,0.00214,-0.31353,0.00000,0.00000,0.00000,0.00000,1,0,
07.10 14:18:44:565,8463,-0.03188,-0.04453,9.79517,-0.00000,0.00000,-0.00000,-0.17086,0.34978,-0.68543,-0.23133,-36.54271,0.18126,0.94958,-0.00142,0.00213,-0.31351,0.00000,0.00000,0.00000,0.00000,1,0,
07.10 14:18:44:574,8464,-0.00356,-0.03566,9.79192,-0.00000,0.00000,-0.00000,-0.17036,0.34681,-0.68643,-0.23110,-36.54629,0.18154,0.94957,-0.00142,0.00214,-0.31354,0.00000,0.00000,0.00000,0.00000,1,0,
07.10 14:18:44:584,8465,-0.01700,-0.03190,9.78849,-0.00000,0.00000,-0.00000,-0.17082,0.34944,-0.69289,-0.23020,-36.53846,0.18092,0.94959,-0.00141,0.00213,-0.31348,0.00000,0.00000,0.00000,0.00000,1,0,
07.10 14:18:44:595,8466,-0.02347,-0.03747,9.79967,-0.00000,0.00000,-0.00000,-0.17086,0.34977,-0.68493,-0.22967,-36.54055,0.18037,0.94959,-0.00141,0.00212,-0.31350,0.00000,0.00000,0.00000,0.00000,1,0,
07.10 14:18:44:605,8467,-0.03924,-0.03684,9.79896,-0.00000,0.00000,-0.00000,-0.17231,0.34992,-0.69240,-0.22865,-36.53273,0.18017,0.94961,-0.00140,0.00212,-0.31343,0.00000,0.00000,0.00000,0.00000,1,0,
07.10 14:18:44:614,8468,-0.02501,-0.02844,9.78985,-0.00000,0.00000,-0.00000,-0.17135,0.35130,-0.68642,-0.22871,-36.53584,0.18090,0.94960,-0.00140,0.00212,-0.31346,0.00000,0.00000,0.00000,0.00000,1,0,
07.10 14:18:44:625,8469,-0.02143,-0.03059,9.79052,-0.00000,0.00000,-0.00000,-0.17281,0.34992,-0.69241,-0.22979,-36.54547,0.18058,0.94957,-0.00141,0.00213,-0.31354,0.00000,0.00000,0.00000,0.00000,1,0,
07.10 14:18:44:635,8470,-0.03979,-0.03586,9.78465,-0.00000,0.00000,-0.00000,-0.17233,0.34985,-0.68892,-0.22763,-36.54697,0.18091,0.94957,-0.00139,0.00212,-0.31355,0.00000,0.00000,0.00000,0.00000,1,0,
07.10 14:18:44:645,8471,-0.02988,-0.05394,9.80282,-0.00000,0.00000,-0.00000,-0.17134,0.34832,-0.68743,-0.22838,-36.54787,0.18055,0.94957,-0.00140,0.00212,-0.31356,0.00000,0.00000,0.00000,0.00000,1,0,
07.10 14:18:44:655,8472,-0.02920,-0.03324,9.80055,-0.00000,0.00000,-0.00000,-0.17036,0.34931,-0.68642,-0.22806,-36.54833,0.18108,0.94956,-0.00139,0.00212,-0.31356,0.00000,0.00000,0.00000,0.00000,1,0,
07.10 14:18:44:665,8473,-0.03262,-0.03503,9.79681,-0.00000,0.00000,-0.00000,-0.17235,0.35079,-0.68593,-0.22605,-36.55332,0.18049,0.94955,-0.00138,0.00211,-0.31360,0.00000,0.00000,0.00000,0.00000,1,0,
07.10 14:18:44:675,8474,-0.01166,-0.01467,9.79512,-0.00000,0.00000,-0.00000,-0.17037,0.34878,-0.68493,-0.22390,-36.55346,0.18026,0.94955,-0.00136,0.00211,-0.31360,0.00000,0.00000,0.00000,0.00000,1,0,
07.10 14:18:44:685,8475,-0.03012,-0.03308,9.79197,-0.00000,0.00000,-0.00000,-0.17235,0.35129,-0.68593,-0.22297,-36.54747,0.18023,0.94957,-0.00135,0.00210,-0.31355,0.00000,0.00000,0.00000,0.00000,1,0,
07.10 14:18:44:695,8476,-0.03246,-0.03493,9.79404,-0.00000,0.00000,-0.00000,-0.17136,0.34827,-0.68494,-0.22257,-36.54089,0.18050,0.94959,-0.00135,0.00210,-0.31350,0.00000,0.00000,0.00000,0.00000,1,0,
07.10 14:18:44:704,8477,-0.01383,-0.02788,9.80823,-0.00000,0.00000,-0.00000,-0.16936,0.34783,-0.68741,-0.22386,-36.55217,0.18035,0.94955,-0.00136,0.00211,-0.31359,0.00000,0.00000,0.00000,0.00000,1,0,
07.10 14:18:44:715,8478,-0.02817,-0.03064,9.80108,-0.00000,0.00000,-0.00000,-0.16986,0.34933,-0.68741,-0.22423,-36.53803,0.17999,0.94959,-0.00137,0.00210,-0.31348,0.00000,0.00000,0.00000,0.00000,1,0,
07.10 14:18:44:725,8479,-0.01460,-0.04230,9.79521,-0.00000,0.00000,-0.00000,-0.17084,0.34835,-0.68842,-0.22381,-36.53707,0.17967,0.94960,-0.00136,0.00210,-0.31347,0.00000,0.00000,0.00000,0.00000,1,0,
07.10 14:18:44:735,8480,-0.02124,-0.04590,9.79559,-0.00000,0.00000,-0.00000,-0.17281,0.35291,-0.69190,-0.22365,-36.53532,0.17990,0.94960,-0.00136,0.00210,-0.31345,0.00000,0.00000,0.00000,0.00000,1,0,
07.10 14:18:44:744,8481,-0.00086,-0.03825,9.77905,-0.00000,0.00000,-0.00000,-0.17134,0.34934,-0.68842,-0.22542,-36.52730,0.18020,0.94962,-0.00138,0.00211,-0.31339,0.00000,0.00000,0.00000,0.00000,1,0,
07.10 14:18:44:755,8482,-0.02982,-0.02862,9.78854,-0.00000,0.00000,-0.00000,-0.17135,0.35080,-0.68642,-0.22618,-36.52900,0.18132,0.94962,-0.00138,0.00212,-0.31340,0.00000,0.00000,0.00000,0.00000,1,0,
07.10 14:18:44:765,8483,-0.02459,-0.03469,9.80418,-0.00000,0.00000,-0.00000,-0.17135,0.34980,-0.68642,-0.22671,-36.53205,0.18128,0.94961,-0.00138,0.00212,-0.31343,0.00000,0.00000,0.00000,0.00000,1,0,
07.10 14:18:44:775,8484,-0.01981,-0.03690,9.79784,-0.00000,0.00000,-0.00000,-0.17085,0.35033,-0.68791,-0.22668,-36.53264,0.18117,0.94961,-0.00138,0.00212,-0.31343,0.00000,0.00000,0.00000,0.00000,1,0,
07.10 14:18:44:785,8485,-0.01970,-0.04513,9.80127,-0.00000,0.00000,-0.00000,-0.17284,0.34880,-0.68644,-0.22642,-36.52820,0.18109,0.94962,-0.00138,0.00212,-0.31339,0.00000,0.00000,0.00000,0.00000,1,0,
07.10 14:18:44:794,8486,-0.01257,-0.03109,9.81278,-0.00000,0.00000,-0.00000,-0.17134,0.34832,-0.68743,-0.22508,-36.52323,0.18108,0.94963,-0.00137,0.00212,-0.31335,0.00000,0.00000,0.00000,0.00000,1,0,
07.10 14:18:44:805,8487,-0.03085,-0.02556,9.80155,-0.00000,0.00000,-0.00000,-0.17035,0.34735,-0.68842,-0.22716,-36.52341,0.18027,0.94963,-0.00139,0.00212,-0.31335,0.00000,0.00000,0.00000,0.00000,1,0,
07.10 14:18:44:815,8488,-0.01872,-0.04715,9.78384,-0.00000,0.00000,-0.00000,-0.17134,0.34932,-0.68742,-0.22579,-36.52833,0.18130,0.94962,-0.00138,0.00212,-0.31339,0.00000,0.00000,0.00000,0.00000,1,0,
07.10 14:18:44:824,8489,-0.03130,-0.04196,9.77674,-0.00000,0.00000,-0.00000,-0.17135,0.34829,-0.68593,-0.22441,-36.53793,0.18176,0.94959,-0.00136,0.00212,-0.31347,0.00000,0.00000,0.00000,0.00000,1,0,
07.10 14:18:44:835,8490,-0.01045,-0.02141,9.78882,-0.00000,0.00000,-0.00000,-0.17283,0.35032,-0.68743,-0.22471,-36.53821,0.18105,0.94959,-0.00137,0.00212,-0.31348,0.00000,0.00000,0.00000,0.00000,1,0,
07.10 14:18:44:845,8491,-0.03044,-0.02227,9.78580,-0.00000,0.00000,-0.00000,-0.17185,0.34930,-0.68643,-0.22452,-36.53400,0.18051,0.94960,-0.00137,0.00211,-0.31344,0.00000,0.00000,0.00000,0.00000,1,0,
07.10 14:18:44:855,8492,-0.03009,-0.02611,9.81135,-0.00000,0.00000,-0.00000,-0.17235,0.35079,-0.68593,-0.22411,-36.53474,0.18034,0.94960,-0.00136,0.00211,-0.31345,0.00000,0.00000,0.00000,0.00000,1,0,
07.10 14:18:44:865,8493,-0.01704,-0.03494,9.80473,-0.00000,0.00000,-0.00000,-0.17333,0.34982,-0.68744,-0.22499,-36.53896,0.17996,0.94959,-0.00137,0.00211,-0.31348,0.00000,0.00000,0.00000,0.00000,1,0,
07.10 14:18:44:875,8494,-0.02195,-0.03329,9.79998,-0.00000,0.00000,-0.00000,-0.17185,0.34880,-0.68643,-0.22452,-36.53382,0.18012,0.94960,-0.00137,0.00211,-0.31344,0.00000,0.00000,0.00000,0.00000,1,0,
07.10 14:18:44:885,8495,-0.03543,-0.05861,9.80325,-0.00000,0.00000,-0.00000,-0.17185,0.34980,-0.68643,-0.22486,-36.52971,0.18059,0.94962,-0.00137,0.00211,-0.31341,0.00000,0.00000,0.00000,0.00000,1,0,
07.10 14:18:44:895,8496,-0.03216,-0.02915,9.80511,-0.00000,0.00000,-0.00000,-0.17283,0.34882,-0.68744,-0.22363,-36.53109,0.18070,0.94961,-0.00136,0.00211,-0.31342,0.00000,0.00000,0.00000,0.00000,1,0,
07.10 14:18:44:905,8497,-0.02421,-0.03787,9.79645,-0.00000,0.00000,-0.00000,-0.17383,0.35130,-0.68694,-0.22236,-36.54025,0.18102,0.94959,-0.00135,0.00211,-0.31349,0.00000,0.00000,0.00000,0.00000,1,0,
07.10 14:18:44:914,8498,-0.02783,-0.02370,9.78799,-0.00000,0.00000,-0.00000,-0.17235,0.35227,-0.68493,-0.22192,-36.53727,0.18117,0.94960,-0.00134,0.00211,-0.31347,0.00000,0.00000,0.00000,0.00000,1,0,
07.10 14:18:44:925,8499,-0.03541,-0.03010,9.79753,-0.00000,0.00000,-0.00000,-0.17185,0.34979,-0.68593,-0.22122,-36.54853,0.18173,0.94956,-0.00134,0.00211,-0.31356,0.00000,0.00000,0.00000,0.00000,1,0,
07.10 14:18:44:935,8500,-0.03194,-0.03059,9.79829,-0.00000,0.00000,-0.00000,-0.17036,0.34980,-0.68592,-0.22260,-36.55293,0.18269,0.94955,-0.00134,0.00212,-0.31360,0.00000,0.00000,0.00000,0.00000,1,0,
07.10 14:18:44:944,8501,-0.01924,-0.01436,9.79035,-0.00000,0.00000,-0.00000,-0.17185,0.34780,-0.68644,-0.22290,-36.55373,0.18180,0.94955,-0.00135,0.00212,-0.31361,0.00000,0.00000,0.00000,0.00000,1,0,
07.10 14:18:44:955,8502,-0.01780,-0.03320,9.80864,-0.00000,0.00000,-0.00000,-0.17280,0.34843,-0.69291,-0.22364,-36.55310,0.18316,0.94955,-0.00135,0.00213,-0.31360,0.00000,0.00000,0.00000,0.00000,1,0,
07.10 14:18:44:965,8503,-0.01883,-0.02091,9.78718,-0.00000,0.00000,-0.00000,-0.17087,0.34776,-0.68394,-0.22376,-36.53927,0.18310,0.94959,-0.00135,0.00213,-0.31349,0.00000,0.00000,0.00000,0.00000,1,0,
07.10 14:18:44:975,8504,-0.02156,-0.04420,9.80611,-0.00000,0.00000,-0.00000,-0.17085,0.34832,-0.68692,-0.22270,-36.53036,0.18212,0.94961,-0.00135,0.00212,-0.31341,0.00000,0.00000,0.00000,0.00000,1,0,
07.10 14:18:44:985,8505,-0.02253,-0.02688,9.79409,-0.00000,0.00000,-0.00000,-0.17085,0.35133,-0.68791,-0.22298,-36.52935,0.18193,0.94962,-0.00135,0.00212,-0.31340,0.00000,0.00000,0.00000,0.00000,1,0,
07.10 14:18:44:995,8506,-0.02512,-0.04913,9.77941,-0.00000,0.00000,-0.00000,-0.17184,0.34981,-0.68693,-0.22382,-36.52268,0.18209,0.94964,-0.00136,0.00212,-0.31335,0.00000,0.00000,0.00000,0.00000,1,0,
07.10 14:18:45:004,8507,-0.04002,-0.03498,9.80713,-0.00000,0.00000,-0.00000,-0.17084,0.34986,-0.68941,-0.22358,-36.52895,0.18117,0.94962,-0.00136,0.00211,-0.31340,0.00000,0.00000,0.00000,0.00000,1,0,
07.10 14:18:45:015,8508,-0.02553,-0.03138,9.81903,-0.00000,0.00000,-0.00000,-0.16984,0.35090,-0.69089,-0.22437,-36.53205,0.18096,0.94961,-0.00136,0.00211,-0.31343,0.00000,0.00000,0.00000,0.00000,1,0,
07.10 14:18:45:025,8509,-0.00964,-0.02241,9.78684,-0.00000,0.00000,-0.00000,-0.17033,0.35142,-0.69238,-0.22606,-36.53447,0.18150,0.94960,-0.00138,0.00212,-0.31345,0.00000,0.00000,0.00000,0.00000,1,0,
07.10 14:18:45:035,8510,-0.01318,-0.02506,9.80120,-0.00000,0.00000,-0.00000,-0.17185,0.34978,-0.68543,-0.22537,-36.53566,0.18146,0.94960,-0.00137,0.00212,-0.31346,0.00000,0.00000,0.00000,0.00000,1,0,
07.10 14:18:45:044,8511,-0.01657,-0.03494,9.80546,-0.00000,0.00000,-0.00000,-0.17284,0.34831,-0.68694,-0.22481,-36.53055,0.18200,0.94961,-0.00137,0.00212,-0.31341,0.00000,0.00000,0.00000,0.00000,1,0,
07.10 14:18:45:055,8512,-0.01782,-0.03595,9.79197,-0.00000,0.00000,-0.00000,-0.17185,0.34830,-0.68643,-0.22552,-36.53086,0.18214,0.94961,-0.00137,0.00213,-0.31342,0.00000,0.00000,0.00000,0.00000,1,0,
07.10 14:18:45:064,8513,-0.02447,-0.03608,9.78596,-0.00000,0.00000,-0.00000,-0.17234,0.34881,-0.68693,-0.22450,-36.53122,0.18133,0.94961,-0.00136,0.00212,-0.31342,0.00000,0.00000,0.00000,0.00000,1,0,
07.10 14:18:45:075,8514,-0.02647,-0.03800,9.79817,-0.00000,0.00000,-0.00000,-0.17085,0.34981,-0.68692,-0.22513,-36.53268,0.18158,0.94961,-0.00137,0.00212,-0.31343,0.00000,0.00000,0.00000,0.00000,1,0,
07.10 14:18:45:085,8515,-0.02395,-0.04732,9.79850,-0.00000,0.00000,-0.00000,-0.17136,0.34728,-0.68494,-0.22583,-36.55097,0.18126,0.94956,-0.00138,0.00212,-0.31358,0.00000,0.00000,0.00000,0.00000,1,0,
07.10 14:18:45:095,8516,-0.02585,-0.03366,9.80425,-0.00000,0.00000,-0.00000,-0.17186,0.34975,-0.68394,-0.22587,-36.54832,0.18128,0.94956,-0.00138,0.00212,-0.31356,0.00000,0.00000,0.00000,0.00000,1,0,
07.10 14:18:45:105,8517,-0.02568,-0.01656,9.79238,-0.00000,0.00000,-0.00000,-0.17284,0.35031,-0.68693,-0.22530,-36.54798,0.18067,0.94957,-0.00137,0.00211,-0.31356,0.00000,0.00000,0.00000,0.00000,1,0,
07.10 14:18:45:115,8518,-0.02179,-0.02060,9.79955,-0.00000,0.00000,-0.00000,-0.17234,0.34732,-0.68744,-0.22646,-36.54787,0.18091,0.94957,-0.00138,0.00212,-0.31356,0.00000,0.00000,0.00000,0.00000,1,0,
07.10 14:18:45:125,8519,-0.02676,-0.02053,9.79788,-0.00000,0.00000,-0.00000,-0.17185,0.34877,-0.68494,-0.22692,-36.55253,0.18144,0.94955,-0.00138,0.00212,-0.31360,0.00000,0.00000,0.00000,0.00000,1,0,
07.10 14:18:45:136,8520,-0.03510,-0.03622,9.79016,-0.00000,0.00000,-0.00000,-0.17284,0.34928,-0.68544,-0.22550,-36.56183,0.18198,0.94953,-0.00137,0.00213,-0.31367,0.00000,0.00000,0.00000,0.00000,1,0,
07.10 14:18:45:145,8521,-0.03577,-0.03551,9.79154,-0.00000,0.00000,-0.00000,-0.17383,0.34832,-0.68745,-0.22607,-36.55886,0.18106,0.94954,-0.00138,0.00212,-0.31365,0.00000,0.00000,0.00000,0.00000,1,0,
07.10 14:18:45:154,8522,-0.03370,-0.02020,9.79855,-0.00000,0.00000,-0.00000,-0.17282,0.34887,-0.68992,-0.22524,-36.55379,0.18142,0.94955,-0.00137,0.00212,-0.31361,0.00000,0.00000,0.00000,0.00000,1,0,
07.10 14:18:45:164,8523,-0.03448,-0.03910,9.79717,-0.00000,0.00000,-0.00000,-0.17086,0.34978,-0.68543,-0.22361,-36.54785,0.18058,0.94957,-0.00136,0.00211,-0.31356,0.00000,0.00000,0.00000,0.00000,1,0,
07.10 14:18:45:174,8524,-0.01589,-0.05227,9.79447,-0.00000,0.00000,-0.00000,-0.17284,0.34928,-0.68544,-0.22503,-36.54252,0.18234,0.94958,-0.00137,0.00213,-0.31351,0.00000,0.00000,0.00000,0.00000,1,0,
07.10 14:18:45:185,8525,-0.02812,-0.03301,9.80744,-0.00000,0.00000,-0.00000,-0.17234,0.34830,-0.68644,-0.22568,-36.53782,0.18259,0.94959,-0.00137,0.00213,-0.31347,0.00000,0.00000,0.00000,0.00000,1,0,
07.10 14:18:45:195,8526,-0.02456,-0.02855,9.80422,-0.00000,0.00000,-0.00000,-0.17184,0.34934,-0.68842,-0.22463,-36.53326,0.18191,0.94961,-0.00136,0.00212,-0.31344,0.00000,0.00000,0.00000,0.00000,1,0,
07.10 14:18:45:204,8527,-0.02327,-0.03502,9.79683,-0.00000,0.00000,-0.00000,-0.17383,0.34981,-0.68694,-0.22514,-36.53011,0.18136,0.94961,-0.00137,0.00212,-0.31341,0.00000,0.00000,0.00000,0.00000,1,0,
07.10 14:18:45:216,8528,-0.01659,-0.04340,9.79438,-0.00000,0.00000,-0.00000,-0.17185,0.34979,-0.68593,-0.22397,-36.52080,0.18147,0.94964,-0.00136,0.00212,-0.31333,0.00000,0.00000,0.00000,0.00000,1,0,
07.10 14:18:45:226,8529,-0.02616,-0.03880,9.80110,-0.00000,0.00000,-0.00000,-0.17383,0.34782,-0.68745,-0.22992,-36.49443,0.17387,0.94971,-0.00143,0.00207,-0.31311,0.00000,0.00000,0.00000,0.00000,1,0,
07.10 14:18:45:235,8530,-0.03908,-0.02715,9.80983,-0.00000,0.00000,-0.00000,-0.17135,0.35331,-0.68691,-0.22964,-36.50132,0.17373,0.94969,-0.00143,0.00207,-0.31317,0.00000,0.00000,0.00000,0.00000,1,0,
07.10 14:18:45:254,8531,-0.03715,-0.02853,9.81414,-0.00000,0.00000,-0.00000,-0.17234,0.34879,-0.68594,-0.22886,-36.45691,0.17299,0.94981,-0.00142,0.00206,-0.31280,0.00000,0.00000,0.00000,0.00000,1,0,
07.10 14:18:45:257,8532,-0.03017,-0.04352,9.79493,-0.00000,0.00000,-0.00000,-0.17036,0.35031,-0.68641,-0.22961,-36.44899,0.17291,0.94984,-0.00143,0.00206,-0.31274,0.00000,0.00000,0.00000,0.00000,1,0,
07.10 14:18:45:265,8533,-0.02505,-0.05359,9.80330,-0.00000,0.00000,-0.00000,-0.17235,0.34678,-0.68545,-0.22859,-36.44049,0.17212,0.94986,-0.00143,0.00205,-0.31267,0.00000,0.00000,0.00000,0.00000,1,0,
07.10 14:18:45:275,8534,-0.02829,-0.02567,9.80227,-0.00000,0.00000,-0.00000,-0.17035,0.34733,-0.68742,-0.22995,-36.43744,0.17199,0.94987,-0.00144,0.00205,-0.31264,0.00000,0.00000,0.00000,0.00000,1,0,
07.10 14:18:45:284,8535,-0.03304,-0.02028,9.80463,-0.00000,0.00000,-0.00000,-0.17134,0.34932,-0.68742,-0.22898,-36.44572,0.17248,0.94985,-0.00143,0.00205,-0.31271,0.00000,0.00000,0.00000,0.00000,1,0,
07.10 14:18:45:296,8536,-0.03628,-0.02465,9.80382,-0.00000,0.00000,-0.00000,-0.17331,0.34989,-0.69092,-0.22924,-36.44677,0.17141,0.94984,-0.00143,0.00205,-0.31272,0.00000,0.00000,0.00000,0.00000,1,0,
07.10 14:18:45:305,8537,-0.02666,-0.02975,9.79252,-0.00000,0.00000,-0.00000,-0.17185,0.34778,-0.68544,-0.22906,-36.44274,0.17169,0.94985,-0.00143,0.00205,-0.31269,0.00000,0.00000,0.00000,0.00000,1,0,
07.10 14:18:45:314,8538,-0.01394,-0.04361,9.79226,-0.00000,0.00000,-0.00000,-0.17335,0.34925,-0.68395,-0.22983,-36.43937,0.17115,0.94986,-0.00144,0.00205,-0.31266,0.00000,0.00000,0.00000,0.00000,1,0,
07.10 14:18:45:324,8539,-0.03392,-0.03232,9.80706,-0.00000,0.00000,-0.00000,-0.17035,0.35082,-0.68741,-0.23020,-36.45334,0.17145,0.94982,-0.00144,0.00205,-0.31277,0.00000,0.00000,0.00000,0.00000,1,0,
07.10 14:18:45:335,8540,-0.04190,-0.03151,9.80036,-0.00000,0.00000,-0.00000,-0.17182,0.34989,-0.69091,-0.23058,-36.44791,0.17228,0.94984,-0.00144,0.00206,-0.31273,0.00000,0.00000,0.00000,0.00000,1,0,
07.10 14:18:45:344,8541,-0.01978,-0.04162,9.80630,-0.00000,0.00000,-0.00000,-0.17085,0.34581,-0.68643,-0.22889,-36.44377,0.17330,0.94985,-0.00142,0.00206,-0.31269,0.00000,0.00000,0.00000,0.00000,1,0,
07.10 14:18:45:355,8542,-0.03046,-0.04086,9.78990,-0.00000,0.00000,-0.00000,-0.17233,0.34834,-0.68843,-0.22746,-36.45028,0.17327,0.94983,-0.00141,0.00206,-0.31275,0.00000,0.00000,0.00000,0.00000,1,0,
07.10 14:18:45:366,8543,-0.02509,-0.03577,9.79474,-0.00000,0.00000,-0.00000,-0.17184,0.35031,-0.68692,-0.22766,-36.45124,0.17337,0.94983,-0.00141,0.00206,-0.31276,0.00000,0.00000,0.00000,0.00000,1,0,
07.10 14:18:45:377,8544,-0.01640,-0.02037,9.79893,-0.00000,0.00000,-0.00000,-0.17134,0.35134,-0.68841,-0.22667,-36.46100,0.17278,0.94980,-0.00141,0.00205,-0.31284,0.00000,0.00000,0.00000,0.00000,1,0,
07.10 14:18:45:386,8545,-0.01373,-0.03777,9.78565,-0.00000,0.00000,-0.00000,-0.17085,0.35031,-0.68692,-0.22719,-36.45884,0.17239,0.94981,-0.00141,0.00205,-0.31282,0.00000,0.00000,0.00000,0.00000,1,0,
07.10 14:18:45:395,8546,-0.01783,-0.03523,9.77802,-0.00000,0.00000,-0.00000,-0.17334,0.34980,-0.68644,-0.22720,-36.45504,0.17249,0.94982,-0.00141,0.00205,-0.31279,0.00000,0.00000,0.00000,0.00000,1,0,
07.10 14:18:45:404,8547,-0.02634,-0.03556,9.80115,-0.00000,0.00000,-0.00000,-0.17235,0.35027,-0.68494,-0.22859,-36.44537,0.17219,0.94985,-0.00142,0.00205,-0.31271,0.00000,0.00000,0.00000,0.00000,1,0,
07.10 14:18:45:414,8548,-0.01942,-0.02489,9.79633,-0.00000,0.00000,-0.00000,-0.17184,0.34732,-0.68743,-0.22996,-36.45068,0.17223,0.94983,-0.00144,0.00206,-0.31275,0.00000,0.00000,0.00000,0.00000,1,0,
07.10 14:18:45:425,8549,-0.01256,-0.02238,9.79378,-0.00000,0.00000,-0.00000,-0.17284,0.34830,-0.68644,-0.23087,-36.46983,0.17180,0.94978,-0.00144,0.00205,-0.31291,0.00000,0.00000,0.00000,0.00000,1,0,
07.10 14:18:45:435,8550,-0.00546,-0.04002,9.80575,-0.00000,0.00000,-0.00000,-0.17185,0.34779,-0.68594,-0.23092,-36.46953,0.17175,0.94978,-0.00144,0.00205,-0.31291,0.00000,0.00000,0.00000,0.00000,1,0,
07.10 14:18:45:444,8551,-0.02567,-0.03958,9.79183,-0.00000,0.00000,-0.00000,-0.17135,0.34831,-0.68693,-0.23018,-36.46773,0.17164,0.94979,-0.00144,0.00205,-0.31289,0.00000,0.00000,0.00000,0.00000,1,0,
07.10 14:18:45:455,8552,-0.03419,-0.03051,9.78661,-0.00000,0.00000,-0.00000,-0.17185,0.34929,-0.68593,-0.23010,-36.46863,0.17098,0.94978,-0.00144,0.00205,-0.31290,0.00000,0.00000,0.00000,0.00000,1,0,
07.10 14:18:45:465,8553,-0.01916,-0.03405,9.79526,-0.00000,0.00000,-0.00000,-0.17036,0.35129,-0.68591,-0.23058,-36.47225,0.17135,0.94977,-0.00144,0.00205,-0.31293,0.00000,0.00000,0.00000,0.00000,1,0,
07.10 14:18:45:475,8554,-0.03170,-0.04391,9.79338,-0.00000,0.00000,-0.00000,-0.17135,0.34980,-0.68642,-0.22913,-36.47467,0.17033,0.94977,-0.00143,0.00204,-0.31295,0.00000,0.00000,0.00000,0.00000,1,0,
07.10 14:18:45:485,8555,-0.03427,-0.05541,9.80191,-0.00000,0.00000,-0.00000,-0.17136,0.35178,-0.68542,-0.23010,-36.47295,0.17011,0.94977,-0.00144,0.00204,-0.31294,0.00000,0.00000,0.00000,0.00000,1,0,
07.10 14:18:45:494,8556,-0.00606,-0.03255,9.80089,-0.00000,0.00000,-0.00000,-0.17234,0.34781,-0.68694,-0.22969,-36.47457,0.17048,0.94977,-0.00144,0.00204,-0.31295,0.00000,0.00000,0.00000,0.00000,1,0,
07.10 14:18:45:505,8557,-0.02959,-0.02358,9.81395,-0.00000,0.00000,-0.00000,-0.17082,0.34793,-0.69240,-0.22986,-36.48111,0.17108,0.94975,-0.00144,0.00205,-0.31300,0.00000,0.00000,0.00000,0.00000,1,0,
07.10 14:18:45:514,8558,-0.01671,-0.04201,9.80616,-0.00000,0.00000,-0.00000,-0.17085,0.34783,-0.68742,-0.23070,-36.43724,0.17045,0.94987,-0.00145,0.00204,-0.31264,0.00000,0.00000,0.00000,0.00000,1,0,
07.10 14:18:45:524,8559,-0.02698,-0.03360,9.78229,-0.00000,0.00000,-0.00000,-0.17086,0.34678,-0.68494,-0.23055,-36.43643,0.16964,0.94987,-0.00145,0.00204,-0.31263,0.00000,0.00000,0.00000,0.00000,1,0,
07.10 14:18:45:536,8560,-0.00445,-0.03814,9.79815,-0.00000,0.00000,-0.00000,-0.17133,0.34988,-0.69041,-0.23032,-36.43999,0.16959,0.94986,-0.00145,0.00203,-0.31266,0.00000,0.00000,0.00000,0.00000,1,0,
07.10 14:18:45:545,8561,-0.04527,-0.04116,9.79407,-0.00000,0.00000,-0.00000,-0.17184,0.34931,-0.68693,-0.23266,-36.43784,0.16942,0.94987,-0.00147,0.00204,-0.31264,0.00000,0.00000,0.00000,0.00000,1,0,
07.10 14:18:45:554,8562,-0.04053,-0.04156,9.79612,-0.00000,0.00000,-0.00000,-0.17036,0.34731,-0.68643,-0.23382,-36.43281,0.16940,0.94988,-0.00148,0.00204,-0.31260,0.00000,0.00000,0.00000,0.00000,1,0,
07.10 14:18:45:565,8563,-0.03777,-0.02421,9.80690,-0.00000,0.00000,-0.00000,-0.17134,0.35133,-0.68791,-0.23293,-36.43534,0.16974,0.94987,-0.00147,0.00204,-0.31262,0.00000,0.00000,0.00000,0.00000,1,0,
07.10 14:18:45:575,8564,-0.02734,-0.05610,9.80203,-0.00000,0.00000,-0.00000,-0.17233,0.34733,-0.68793,-0.23321,-36.44481,0.16936,0.94985,-0.00147,0.00204,-0.31270,0.00000,0.00000,0.00000,0.00000,1,0,
07.10 14:18:45:584,8565,-0.00803,-0.01667,9.79629,-0.00000,0.00000,-0.00000,-0.17086,0.34779,-0.68543,-0.23376,-36.40889,0.16877,0.94995,-0.00148,0.00204,-0.31240,0.00000,0.00000,0.00000,0.00000,1,0,
07.10 14:18:45:594,8566,-0.02003,-0.02281,9.79300,-0.00000,0.00000,-0.00000,-0.16987,0.34877,-0.68443,-0.23293,-36.40985,0.16787,0.94994,-0.00147,0.00203,-0.31241,0.00000,0.00000,0.00000,0.00000,1,0,
