Time,Counter,ax,ay,az,gx,gy,gz,mx,my,mz,roll,yaw,pitch,q0,q1,q2,q3,debug0,debug1,debug2,debug3,Rest,Mag Disturbance,
07.10 14:10:14:228,22963,-0.09037,-0.04790,9.79302,0.00000,0.00000,-144215415432675328.00000,-0.24681,0.34747,-0.68106,-0.39903,-40.78135,0.68147,0.93732,-0.00119,0.00679,-0.34839,0.00000,0.00000,0.00000,0.00000,1,0,
07.10 14:10:14:228,22964,-0.08808,-0.03728,9.77256,0.00000,0.00000,-144215415432675328.00000,-0.24679,0.34403,-0.68406,-0.39839,-40.78152,0.68155,0.93732,-0.00119,0.00679,-0.34839,0.00000,0.00000,0.00000,0.00000,1,0,
07.10 14:10:14:228,22965,-0.08389,-0.04900,9.79767,0.00000,0.00000,-144215415432675328.00000,-0.24727,0.34511,-0.68804,-0.39894,-40.78045,0.68093,0.93733,-0.00119,0.00678,-0.34838,0.00000,0.00000,0.00000,0.00000,1,0,
07.10 14:10:14:230,22966,-0.09344,-0.03890,9.79967,2715785002763741317562368.00000,0.00000,-0.00000,-0.24779,0.34401,-0.68308,-0.39868,-40.78013,0.68151,0.93733,-0.00119,0.00679,-0.34838,0.00000,0.00000,0.00000,0.00000,1,0,
07.10 14:10:14:240,22967,-0.10306,-0.04229,9.80406,2715785002763741317562368.00000,0.00000,-0.00000,-0.24878,0.34552,-0.68407,-0.39758,-40.78023,0.68088,0.93733,-0.00118,0.00678,-0.34838,0.00000,0.00000,0.00000,0.00000,1,0,
07.10 14:10:14:248,22968,-0.08257,-0.04943,9.80337,2715785002763741317562368.00000,0.00000,-0.00000,-0.24531,0.34502,-0.68355,-0.39713,-40.78063,0.68031,0.93733,-0.00118,0.00677,-0.34839,0.00000,0.00000,0.00000,0.00000,1,0,
07.10 14:10:14:259,22969,-0.08174,-0.04787,9.80086,2715785002763741317562368.00000,0.00000,-0.00000,-0.24778,0.34405,-0.68507,-0.39715,-40.78069,0.68020,0.93733,-0.00118,0.00677,-0.34839,0.00000,0.00000,0.00000,0.00000,1,0,
07.10 14:10:14:269,22970,-0.09890,-0.04053,9.80668,2715785002763741317562368.00000,0.00000,-0.00000,-0.25026,0.34555,-0.68558,-0.39709,-40.78027,0.67919,0.93733,-0.00118,0.00676,-0.34838,0.00000,0.00000,0.00000,0.00000,1,0,
07.10 14:10:14:279,22971,-0.09588,-0.03636,9.79628,2715785002763741317562368.00000,0.00000,-0.00000,-0.24678,0.34607,-0.68605,-0.39817,-40.77958,0.67909,0.93733,-0.00119,0.00677,-0.34838,0.00000,0.00000,0.00000,0.00000,1,0,
07.10 14:10:14:289,22972,-0.09835,-0.05927,9.79233,2715785002763741317562368.00000,0.00000,-0.00000,-0.24876,0.34558,-0.68706,-0.39780,-40.77977,0.67934,0.93733,-0.00119,0.00677,-0.34838,0.00000,0.00000,0.00000,0.00000,1,0,
07.10 14:10:14:300,22973,-0.08716,-0.02852,9.79731,2715785002763741317562368.00000,0.00000,-0.00000,-0.24628,0.34461,-0.68804,-0.39649,-40.77917,0.67952,0.93733,-0.00118,0.00676,-0.34837,0.00000,0.00000,0.00000,0.00000,1,0,
07.10 14:10:14:310,22974,-0.08578,-0.04607,9.79629,2715785002763741317562368.00000,0.00000,-0.00000,-0.24728,0.34307,-0.68606,-0.39699,-40.77754,0.68052,0.93734,-0.00118,0.00677,-0.34836,0.00000,0.00000,0.00000,0.00000,1,0,
07.10 14:10:14:320,22975,-0.09097,-0.06282,9.80046,2715785002763741317562368.00000,0.00000,-0.00000,-0.24929,0.34448,-0.68209,-0.39684,-40.77733,0.67981,0.93734,-0.00118,0.00677,-0.34836,0.00000,0.00000,0.00000,0.00000,1,0,
07.10 14:10:14:328,22976,-0.09422,-0.04953,9.78751,2715785002763741317562368.00000,0.00000,-0.00000,-0.24629,0.34257,-0.68605,-0.39681,-40.77691,0.68113,0.93734,-0.00118,0.00678,-0.34836,0.00000,0.00000,0.00000,0.00000,1,0,
07.10 14:10:14:338,22977,-0.07887,-0.04410,9.79388,2715785002763741317562368.00000,0.00000,-0.00000,-0.24679,0.34506,-0.68555,-0.39758,-40.77701,0.68041,0.93734,-0.00118,0.00677,-0.34836,0.00000,0.00000,0.00000,0.00000,1,0,
07.10 14:10:14:348,22978,-0.10773,-0.04560,9.78322,2715785002763741317562368.00000,0.00000,-0.00000,-0.24829,0.34402,-0.68358,-0.39803,-40.77624,0.68158,0.93734,-0.00118,0.00679,-0.34835,0.00000,0.00000,0.00000,0.00000,1,0,
07.10 14:10:14:360,22979,-0.09885,-0.04808,9.80182,2715785002763741317562368.00000,0.00000,-0.00000,-0.24779,0.34402,-0.68357,-0.39876,-40.77518,0.68122,0.93734,-0.00119,0.00678,-0.34834,0.00000,0.00000,0.00000,0.00000,1,0,
07.10 14:10:14:370,22980,-0.11141,-0.03845,9.79481,2715785002763741317562368.00000,0.00000,-0.00000,-0.24777,0.34608,-0.68655,-0.39967,-40.77463,0.68165,0.93734,-0.00120,0.00679,-0.34834,0.00000,0.00000,0.00000,0.00000,1,0,
07.10 14:10:14:380,22981,-0.10136,-0.02923,9.80196,2715785002763741317562368.00000,0.00000,-0.00000,-0.24678,0.34910,-0.68753,-0.39771,-40.77432,0.68144,0.93735,-0.00118,0.00678,-0.34833,0.00000,0.00000,0.00000,0.00000,1,0,
07.10 14:10:14:390,22982,-0.08651,-0.06171,9.79633,2715785002763741317562368.00000,0.00000,-0.00000,-0.24878,0.34453,-0.68457,-0.39825,-40.77402,0.68224,0.93735,-0.00118,0.00679,-0.34833,0.00000,0.00000,0.00000,0.00000,1,0,
07.10 14:10:14:399,22983,-0.09778,-0.03304,9.79664,2715785002763741317562368.00000,0.00000,-0.00000,-0.24825,0.34765,-0.69053,-0.39866,-40.77363,0.68179,0.93735,-0.00119,0.00679,-0.34833,0.00000,0.00000,0.00000,0.00000,1,0,
07.10 14:10:14:409,22984,-0.11227,-0.02725,9.78363,2715785002763741317562368.00000,0.00000,-0.00000,-0.24878,0.34403,-0.68458,-0.39748,-40.77332,0.68206,0.93735,-0.00118,0.00679,-0.34833,0.00000,0.00000,0.00000,0.00000,1,0,
07.10 14:10:14:419,22985,-0.08708,-0.04792,9.79562,2715785002763741317562368.00000,0.00000,-0.00000,-0.24829,0.34601,-0.68357,-0.39730,-40.77294,0.68226,0.93735,-0.00118,0.00679,-0.34832,0.00000,0.00000,0.00000,0.00000,1,0,
07.10 14:10:14:429,22986,-0.08876,-0.04185,9.78622,2715785002763741317562368.00000,0.00000,-0.00000,-0.24876,0.34408,-0.68706,-0.39921,-40.77230,0.68218,0.93735,-0.00119,0.00679,-0.34832,0.00000,0.00000,0.00000,0.00000,1,0,
07.10 14:10:14:439,22987,-0.10410,-0.03992,9.80434,2715785002763741317562368.00000,0.00000,-0.00000,-0.24725,0.34570,-0.69252,-0.39944,-40.77220,0.68245,0.93735,-0.00119,0.00680,-0.34832,0.00000,0.00000,0.00000,0.00000,1,0,
07.10 14:10:14:449,22988,-0.10290,-0.05415,9.79903,2715785002763741317562368.00000,0.00000,-0.00000,-0.24729,0.34354,-0.68457,-0.39861,-40.77122,0.68285,0.93735,-0.00118,0.00680,-0.34831,0.00000,0.00000,0.00000,0.00000,1,0,
07.10 14:10:14:460,22989,-0.10843,-0.05422,9.80260,2715785002763741317562368.00000,0.00000,-0.00000,-0.24679,0.34155,-0.68507,-0.39961,-40.77084,0.68292,0.93736,-0.00119,0.00680,-0.34831,0.00000,0.00000,0.00000,0.00000,1,0,
07.10 14:10:14:470,22990,-0.09238,-0.04118,9.78916,2715785002763741317562368.00000,0.00000,-0.00000,-0.24778,0.34457,-0.68606,-0.39915,-40.77088,0.68274,0.93736,-0.00119,0.00680,-0.34831,0.00000,0.00000,0.00000,0.00000,1,0,
07.10 14:10:14:480,22991,-0.11255,-0.04446,9.79290,2715785002763741317562368.00000,0.00000,-0.00000,-0.24630,0.34604,-0.68455,-0.39817,-40.77118,0.68222,0.93735,-0.00118,0.00679,-0.34831,0.00000,0.00000,0.00000,0.00000,1,0,
07.10 14:10:14:489,22992,-0.09709,-0.05086,9.80356,2715785002763741317562368.00000,0.00000,-0.00000,-0.24677,0.34311,-0.68805,-0.39989,-40.77045,0.68213,0.93736,-0.00120,0.00680,-0.34830,0.00000,0.00000,0.00000,0.00000,1,0,
07.10 14:10:14:499,22993,-0.09178,-0.05092,9.78882,2715785002763741317562368.00000,0.00000,-0.00000,-0.24879,0.34499,-0.68258,-0.39931,-40.77007,0.68242,0.93736,-0.00119,0.00680,-0.34830,0.00000,0.00000,0.00000,0.00000,1,0,
07.10 14:10:14:509,22994,-0.08286,-0.03386,9.79340,2715785002763741317562368.00000,0.00000,-0.00000,-0.24729,0.34251,-0.68308,-0.39912,-40.76979,0.68196,0.93736,-0.00119,0.00679,-0.34830,0.00000,0.00000,0.00000,0.00000,1,0,
07.10 14:10:14:519,22995,-0.11272,-0.05720,9.81531,2715785002763741317562368.00000,0.00000,-0.00000,-0.24679,0.34554,-0.68456,-0.39851,-40.76968,0.68202,0.93736,-0.00119,0.00679,-0.34830,0.00000,0.00000,0.00000,0.00000,1,0,
07.10 14:10:14:529,22996,-0.09687,-0.04051,9.81126,2715785002763741317562368.00000,0.00000,-0.00000,-0.24680,0.34501,-0.68306,-0.39553,-40.76904,0.68253,0.93736,-0.00116,0.00679,-0.34829,0.00000,0.00000,0.00000,0.00000,1,0,
07.10 14:10:14:540,22997,-0.09311,-0.04595,9.80289,2715785002763741317562368.00000,0.00000,-0.00000,-0.24778,0.34556,-0.68556,-0.39546,-40.76900,0.68174,0.93736,-0.00116,0.00678,-0.34829,0.00000,0.00000,0.00000,0.00000,1,0,
07.10 14:10:14:549,22998,-0.11542,-0.04605,9.79807,2715785002763741317562368.00000,0.00000,-0.00000,-0.24729,0.34454,-0.68456,-0.39675,-40.76813,0.68115,0.93736,-0.00118,0.00678,-0.34828,0.00000,0.00000,0.00000,0.00000,1,0,
07.10 14:10:14:560,22999,-0.09406,-0.03634,9.79671,2715785002763741317562368.00000,0.00000,-0.00000,-0.24680,0.34702,-0.68355,-0.39593,-40.76769,0.68179,0.93737,-0.00117,0.00678,-0.34828,0.00000,0.00000,0.00000,0.00000,1,0,
07.10 14:10:14:569,23000,-0.09629,-0.04239,9.80735,2715785002763741317562368.00000,0.00000,-0.00000,-0.24729,0.34504,-0.68456,-0.39558,-40.76655,0.68149,0.93737,-0.00116,0.00678,-0.34827,0.00000,0.00000,0.00000,0.00000,1,0,
07.10 14:10:14:578,23001,-0.08288,-0.04059,9.79095,2715785002763741317562368.00000,0.00000,-0.00000,-0.24827,0.34358,-0.68656,-0.39574,-40.76699,0.68114,0.93737,-0.00117,0.00677,-0.34827,0.00000,0.00000,0.00000,0.00000,1,0,
07.10 14:10:14:589,23002,-0.09089,-0.05174,9.79073,2715785002763741317562368.00000,0.00000,-0.00000,-0.24778,0.34506,-0.68556,-0.39633,-40.76683,0.68102,0.93737,-0.00117,0.00678,-0.34827,0.00000,0.00000,0.00000,0.00000,1,0,
07.10 14:10:14:599,23003,-0.08285,-0.04503,9.81121,2715785002763741317562368.00000,0.00000,-0.00000,-0.24928,0.34501,-0.68358,-0.39548,-40.76736,0.68001,0.93737,-0.00117,0.00676,-0.34828,0.00000,0.00000,0.00000,0.00000,1,0,
07.10 14:10:14:610,23004,-0.09230,-0.04377,9.79972,2715785002763741317562368.00000,0.00000,-0.00000,-0.24628,0.34458,-0.68655,-0.39483,-40.76793,0.68015,0.93736,-0.00116,0.00676,-0.34828,0.00000,0.00000,0.00000,0.00000,1,0,
07.10 14:10:14:620,23005,-0.09623,-0.04182,9.80084,2715785002763741317562368.00000,0.00000,-0.00000,-0.24728,0.34458,-0.68655,-0.39427,-40.76785,0.68063,0.93736,-0.00116,0.00677,-0.34828,0.00000,0.00000,0.00000,0.00000,1,0,
07.10 14:10:14:630,23006,-0.09699,-0.05443,9.80041,2715785002763741317562368.00000,0.00000,-0.00000,-0.24728,0.34407,-0.68606,-0.39351,-40.76643,0.68022,0.93737,-0.00115,0.00676,-0.34827,0.00000,0.00000,0.00000,0.00000,1,0,
07.10 14:10:14:640,23007,-0.10984,-0.05022,9.79943,2715785002763741317562368.00000,0.00000,-0.00000,-0.24827,0.34556,-0.68606,-0.39474,-40.76593,0.67980,0.93737,-0.00116,0.00676,-0.34827,0.00000,0.00000,0.00000,0.00000,1,0,
07.10 14:10:14:649,23008,-0.06861,-0.05021,9.78234,2715785002763741317562368.00000,0.00000,-0.00000,-0.25027,0.34602,-0.68408,-0.39438,-40.76518,0.68003,0.93737,-0.00116,0.00676,-0.34826,0.00000,0.00000,0.00000,0.00000,1,0,
07.10 14:10:14:659,23009,-0.09399,-0.03299,9.79643,2715785002763741317562368.00000,0.00000,-0.00000,-0.24779,0.34652,-0.68406,-0.39444,-40.76553,0.67990,0.93737,-0.00116,0.00676,-0.34826,0.00000,0.00000,0.00000,0.00000,1,0,
07.10 14:10:14:669,23010,-0.08966,-0.04524,9.80873,2715785002763741317562368.00000,0.00000,-0.00000,-0.24829,0.34651,-0.68357,-0.39461,-40.76596,0.67960,0.93737,-0.00116,0.00676,-0.34827,0.00000,0.00000,0.00000,0.00000,1,0,
07.10 14:10:14:679,23011,-0.09960,-0.05563,9.80783,2715785002763741317562368.00000,0.00000,-0.00000,-0.24779,0.34453,-0.68407,-0.39287,-40.76498,0.67841,0.93737,-0.00115,0.00674,-0.34826,0.00000,0.00000,0.00000,0.00000,1,0,
07.10 14:10:14:731,23012,-0.09482,-0.05235,9.80287,2715785002763741317562368.00000,0.00000,-0.00000,-0.24977,0.34503,-0.68458,-0.39171,-40.76443,0.67734,0.93738,-0.00115,0.00673,-0.34825,0.00000,0.00000,0.00000,0.00000,1,0,
07.10 14:10:14:734,23013,-0.09043,-0.04296,9.78951,2715785002763741317562368.00000,0.00000,-0.00000,-0.24878,0.34553,-0.68457,-0.39449,-40.76301,0.67704,0.93738,-0.00117,0.00674,-0.34824,0.00000,0.00000,0.00000,0.00000,1,0,
07.10 14:10:14:737,23014,-0.11088,-0.06084,9.78582,2715785002763741317562368.00000,0.00000,-0.00000,-0.24779,0.34502,-0.68357,-0.39488,-40.76285,0.67714,0.93738,-0.00117,0.00674,-0.34824,0.00000,0.00000,0.00000,0.00000,1,0,
07.10 14:10:14:738,23015,-0.06807,-0.03426,9.79455,2715785002763741317562368.00000,0.00000,-0.00000,-0.24729,0.34304,-0.68457,-0.39401,-40.76317,0.67782,0.93738,-0.00116,0.00674,-0.34824,0.00000,0.00000,0.00000,0.00000,1,0,
07.10 14:10:14:741,23016,-0.07580,-0.03857,9.80034,2715785002763741317562368.00000,0.00000,-0.00000,-0.24878,0.34400,-0.68308,-0.39364,-40.76331,0.67778,0.93738,-0.00116,0.00674,-0.34824,0.00000,0.00000,0.00000,0.00000,1,0,
07.10 14:10:14:744,23017,-0.09951,-0.04402,9.80358,2715785002763741317562368.00000,0.00000,-0.00000,-0.24826,0.34511,-0.68805,-0.39320,-40.76337,0.67838,0.93738,-0.00115,0.00674,-0.34825,0.00000,0.00000,0.00000,0.00000,1,0,
07.10 14:10:14:749,23018,-0.07253,-0.05038,9.79769,2715785002763741317562368.00000,0.00000,-0.00000,-0.24828,0.34504,-0.68507,-0.39207,-40.76231,0.67912,0.93738,-0.00114,0.00675,-0.34824,0.00000,0.00000,0.00000,0.00000,1,0,
07.10 14:10:14:759,23019,-0.07977,-0.04123,9.78236,2715785002763741317562368.00000,0.00000,-0.00000,-0.24678,0.34357,-0.68606,-0.39218,-40.76105,0.67841,0.93739,-0.00115,0.00674,-0.34823,0.00000,0.00000,0.00000,0.00000,1,0,
07.10 14:10:14:770,23020,-0.08977,-0.05891,9.79517,2715785002763741317562368.00000,0.00000,-0.00000,-0.24829,0.34498,-0.68208,-0.39141,-40.76068,0.67836,0.93739,-0.00114,0.00674,-0.34822,0.00000,0.00000,0.00000,0.00000,1,0,
07.10 14:10:14:780,23021,-0.08005,-0.05001,9.81750,2715785002763741317562368.00000,0.00000,-0.00000,-0.24976,0.34355,-0.68558,-0.39079,-40.76069,0.67846,0.93739,-0.00113,0.00674,-0.34822,0.00000,0.00000,0.00000,0.00000,1,0,
07.10 14:10:14:790,23022,-0.11417,-0.04626,9.80628,2715785002763741317562368.00000,0.00000,-0.00000,-0.24629,0.34556,-0.68555,-0.39066,-40.76071,0.67796,0.93739,-0.00114,0.00673,-0.34822,0.00000,0.00000,0.00000,0.00000,1,0,
07.10 14:10:14:800,23023,-0.07719,-0.04696,9.80089,2715785002763741317562368.00000,0.00000,-0.00000,-0.24729,0.34353,-0.68407,-0.39041,-40.76109,0.67825,0.93739,-0.00113,0.00673,-0.34823,0.00000,0.00000,0.00000,0.00000,1,0,
07.10 14:10:14:809,23024,-0.09781,-0.04895,9.80327,2715785002763741317562368.00000,0.00000,-0.00000,-0.24630,0.34353,-0.68406,-0.38950,-40.76032,0.67845,0.93739,-0.00112,0.00673,-0.34822,0.00000,0.00000,0.00000,0.00000,1,0,
07.10 14:10:14:818,23025,-0.10933,-0.04633,9.80072,2715785002763741317562368.00000,0.00000,-0.00000,-0.24829,0.34301,-0.68308,-0.39058,-40.75928,0.67899,0.93739,-0.00113,0.00674,-0.34821,0.00000,0.00000,0.00000,0.00000,1,0,
07.10 14:10:14:829,23026,-0.09542,-0.05626,9.80525,2715785002763741317562368.00000,0.00000,-0.00000,-0.24726,0.34315,-0.69004,-0.38931,-40.75953,0.67768,0.93739,-0.00113,0.00673,-0.34821,0.00000,0.00000,0.00000,0.00000,1,0,
07.10 14:10:14:839,23027,-0.09061,-0.03543,9.80144,2715785002763741317562368.00000,0.00000,-0.00000,-0.24829,0.34499,-0.68258,-0.38779,-40.75983,0.67696,0.93739,-0.00111,0.00672,-0.34822,0.00000,0.00000,0.00000,0.00000,1,0,
07.10 14:10:14:849,23028,-0.10854,-0.04039,9.80580,2715785002763741317562368.00000,0.00000,-0.00000,-0.24828,0.34403,-0.68408,-0.38835,-40.75916,0.67838,0.93739,-0.00112,0.00673,-0.34821,0.00000,0.00000,0.00000,0.00000,1,0,
07.10 14:10:14:860,23029,-0.09408,-0.04178,9.80205,2715785002763741317562368.00000,0.00000,-0.00000,-0.24877,0.34354,-0.68508,-0.38855,-40.75848,0.67813,0.93739,-0.00112,0.00673,-0.34821,0.00000,0.00000,0.00000,0.00000,1,0,
07.10 14:10:14:869,23030,-0.11184,-0.02332,9.80911,2715785002763741317562368.00000,0.00000,-0.00000,-0.24680,0.34250,-0.68258,-0.38823,-40.75820,0.67729,0.93739,-0.00112,0.00672,-0.34820,0.00000,0.00000,0.00000,0.00000,1,0,
07.10 14:10:14:879,23031,-0.07669,-0.06176,9.80497,2715785002763741317562368.00000,0.00000,-0.00000,-0.24878,0.34450,-0.68308,-0.38821,-40.75805,0.67710,0.93739,-0.00112,0.00672,-0.34820,0.00000,0.00000,0.00000,0.00000,1,0,
07.10 14:10:14:889,23032,-0.08579,-0.04499,9.80721,2715785002763741317562368.00000,0.00000,-0.00000,-0.24779,0.34252,-0.68358,-0.38889,-40.75834,0.67734,0.93739,-0.00112,0.00672,-0.34820,0.00000,0.00000,0.00000,0.00000,1,0,
07.10 14:10:14:898,23033,-0.08820,-0.04407,9.79757,2715785002763741317562368.00000,0.00000,-0.00000,-0.24927,0.34453,-0.68458,-0.38942,-40.75797,0.67624,0.93740,-0.00113,0.00672,-0.34820,0.00000,0.00000,0.00000,0.00000,1,0,
07.10 14:10:14:908,23034,-0.08543,-0.04492,9.78258,2715785002763741317562368.00000,0.00000,-0.00000,-0.24878,0.34201,-0.68309,-0.39019,-40.75710,0.67576,0.93740,-0.00114,0.00671,-0.34819,0.00000,0.00000,0.00000,0.00000,1,0,
07.10 14:10:14:919,23035,-0.10342,-0.05980,9.78732,2715785002763741317562368.00000,0.00000,-0.00000,-0.24878,0.34252,-0.68359,-0.38924,-40.75764,0.67574,0.93740,-0.00113,0.00671,-0.34820,0.00000,0.00000,0.00000,0.00000,1,0,
07.10 14:10:14:929,23036,-0.10370,-0.05977,9.79350,2715785002763741317562368.00000,0.00000,-0.00000,-0.24630,0.34754,-0.68454,-0.38852,-40.75737,0.67528,0.93740,-0.00113,0.00670,-0.34820,0.00000,0.00000,0.00000,0.00000,1,0,
07.10 14:10:14:939,23037,-0.07918,-0.04334,9.80008,2715785002763741317562368.00000,0.00000,-0.00000,-0.25077,0.34450,-0.68310,-0.38755,-40.75666,0.67517,0.93740,-0.00112,0.00670,-0.34819,0.00000,0.00000,0.00000,0.00000,1,0,
07.10 14:10:14:950,23038,-0.10096,-0.04292,9.80547,2715785002763741317562368.00000,0.00000,-0.00000,-0.24630,0.34452,-0.68356,-0.38774,-40.75610,0.67474,0.93740,-0.00112,0.00670,-0.34819,0.00000,0.00000,0.00000,0.00000,1,0,
07.10 14:10:14:959,23039,-0.10975,-0.03053,9.79559,2715785002763741317562368.00000,0.00000,-0.00000,-0.24828,0.34255,-0.68508,-0.38879,-40.75576,0.67459,0.93740,-0.00113,0.00670,-0.34818,0.00000,0.00000,0.00000,0.00000,1,0,
07.10 14:10:14:969,23040,-0.11178,-0.03991,9.80666,2715785002763741317562368.00000,0.00000,-0.00000,-0.24828,0.34305,-0.68507,-0.38904,-40.75586,0.67425,0.93740,-0.00113,0.00670,-0.34818,0.00000,0.00000,0.00000,0.00000,1,0,
07.10 14:10:14:979,23041,-0.11406,-0.04683,9.79793,2715785002763741317562368.00000,0.00000,-0.00000,-0.24629,0.34305,-0.68506,-0.38955,-40.75543,0.67393,0.93740,-0.00114,0.00670,-0.34818,0.00000,0.00000,0.00000,0.00000,1,0,
07.10 14:10:14:989,23042,-0.11756,-0.04867,9.78978,2715785002763741317562368.00000,0.00000,-0.00000,-0.24777,0.34309,-0.68706,-0.38886,-40.75533,0.67327,0.93740,-0.00114,0.00669,-0.34818,0.00000,0.00000,0.00000,0.00000,1,0,
07.10 14:10:15:000,23043,-0.08316,-0.04763,9.79853,2715785002763741317562368.00000,0.00000,-0.00000,-0.24877,0.34454,-0.68507,-0.38955,-40.75420,0.67264,0.93741,-0.00114,0.00669,-0.34817,0.00000,0.00000,0.00000,0.00000,1,0,
07.10 14:10:15:010,23044,-0.09023,-0.05337,9.79421,2715785002763741317562368.00000,0.00000,-0.00000,-0.24679,0.34354,-0.68456,-0.38788,-40.75445,0.67294,0.93741,-0.00113,0.00668,-0.34817,0.00000,0.00000,0.00000,0.00000,1,0,
07.10 14:10:15:020,23045,-0.09891,-0.04491,9.80422,2715785002763741317562368.00000,0.00000,-0.00000,-0.24777,0.34707,-0.68655,-0.38783,-40.75412,0.67193,0.93741,-0.00113,0.00668,-0.34817,0.00000,0.00000,0.00000,0.00000,1,0,
07.10 14:10:15:029,23046,-0.11979,-0.05258,9.78398,2715785002763741317562368.00000,0.00000,-0.00000,-0.24928,0.34201,-0.68309,-0.38833,-40.75350,0.67193,0.93741,-0.00114,0.00668,-0.34817,0.00000,0.00000,0.00000,0.00000,1,0,
07.10 14:10:15:040,23047,-0.08131,-0.03594,9.80701,2715785002763741317562368.00000,0.00000,-0.00000,-0.24877,0.34354,-0.68508,-0.38876,-40.75290,0.67248,0.93741,-0.00114,0.00668,-0.34816,0.00000,0.00000,0.00000,0.00000,1,0,
07.10 14:10:15:049,23048,-0.08717,-0.05359,9.78796,2715785002763741317562368.00000,0.00000,-0.00000,-0.24626,0.34417,-0.69103,-0.38849,-40.75278,0.67213,0.93741,-0.00114,0.00668,-0.34816,0.00000,0.00000,0.00000,0.00000,1,0,
07.10 14:10:15:059,23049,-0.11440,-0.06533,9.81004,2715785002763741317562368.00000,0.00000,-0.00000,-0.24928,0.34501,-0.68358,-0.38899,-40.75185,0.67172,0.93741,-0.00114,0.00668,-0.34815,0.00000,0.00000,0.00000,0.00000,1,0,
07.10 14:10:15:068,23050,-0.09078,-0.05336,9.79068,2715785002763741317562368.00000,0.00000,-0.00000,-0.24680,0.34702,-0.68355,-0.38805,-40.75251,0.67032,0.93741,-0.00114,0.00666,-0.34816,0.00000,0.00000,0.00000,0.00000,1,0,
07.10 14:10:15:079,23051,-0.09223,-0.05360,9.79338,2715785002763741317562368.00000,0.00000,-0.00000,-0.24778,0.34405,-0.68507,-0.38651,-40.75244,0.67044,0.93741,-0.00112,0.00666,-0.34816,0.00000,0.00000,0.00000,0.00000,1,0,
07.10 14:10:15:089,23052,-0.10066,-0.05324,9.80196,2715785002763741317562368.00000,0.00000,-0.00000,-0.24827,0.34609,-0.68755,-0.38641,-40.75134,0.66967,0.93742,-0.00113,0.00665,-0.34815,0.00000,0.00000,0.00000,0.00000,1,0,
07.10 14:10:15:100,23053,-0.09800,-0.03720,9.80120,2715785002763741317562368.00000,0.00000,-0.00000,-0.25025,0.34611,-0.68856,-0.38561,-40.75072,0.67038,0.93742,-0.00112,0.00666,-0.34814,0.00000,0.00000,0.00000,0.00000,1,0,
07.10 14:10:15:110,23054,-0.10159,-0.04302,9.81081,2715785002763741317562368.00000,0.00000,-0.00000,-0.24928,0.34300,-0.68309,-0.38471,-40.75012,0.67098,0.93742,-0.00111,0.00666,-0.34814,0.00000,0.00000,0.00000,0.00000,1,0,
07.10 14:10:15:120,23055,-0.08497,-0.04948,9.78649,2715785002763741317562368.00000,0.00000,-0.00000,-0.24629,0.34207,-0.68606,-0.38619,-40.74928,0.67136,0.93742,-0.00112,0.00667,-0.34813,0.00000,0.00000,0.00000,0.00000,1,0,
07.10 14:10:15:130,23056,-0.08103,-0.04633,9.79125,2715785002763741317562368.00000,0.00000,-0.00000,-0.24730,0.34150,-0.68258,-0.38600,-40.74821,0.67187,0.93742,-0.00112,0.00667,-0.34812,0.00000,0.00000,0.00000,0.00000,1,0,
07.10 14:10:15:138,23057,-0.10328,-0.05693,9.78692,2715785002763741317562368.00000,0.00000,-0.00000,-0.24729,0.34403,-0.68407,-0.38537,-40.74705,0.67120,0.93743,-0.00111,0.00666,-0.34811,0.00000,0.00000,0.00000,0.00000,1,0,
07.10 14:10:15:149,23058,-0.10916,-0.04721,9.80351,2715785002763741317562368.00000,0.00000,-0.00000,-0.24680,0.34299,-0.68208,-0.38501,-40.74648,0.67108,0.93743,-0.00111,0.00666,-0.34811,0.00000,0.00000,0.00000,0.00000,1,0,
07.10 14:10:15:160,23059,-0.08738,-0.02965,9.79471,2715785002763741317562368.00000,0.00000,-0.00000,-0.24828,0.34305,-0.68507,-0.38251,-40.74598,0.67087,0.93743,-0.00109,0.00665,-0.34810,0.00000,0.00000,0.00000,0.00000,1,0,
07.10 14:10:15:170,23060,-0.09867,-0.04850,9.80148,2715785002763741317562368.00000,0.00000,-0.00000,-0.24977,0.34604,-0.68508,-0.38191,-40.74607,0.67096,0.93743,-0.00109,0.00665,-0.34810,0.00000,0.00000,0.00000,0.00000,1,0,
07.10 14:10:15:179,23061,-0.07729,-0.04655,9.80625,2715785002763741317562368.00000,0.00000,-0.00000,-0.24779,0.34453,-0.68407,-0.38082,-40.74549,0.67154,0.93743,-0.00108,0.00665,-0.34810,0.00000,0.00000,0.00000,0.00000,1,0,
07.10 14:10:15:190,23062,-0.09778,-0.05412,9.79934,2715785002763741317562368.00000,0.00000,-0.00000,-0.24729,0.34252,-0.68357,-0.37994,-40.74413,0.67132,0.93744,-0.00107,0.00665,-0.34809,0.00000,0.00000,0.00000,0.00000,1,0,
07.10 14:10:15:199,23063,-0.09793,-0.05273,9.80651,2715785002763741317562368.00000,0.00000,-0.00000,-0.24578,0.34762,-0.68852,-0.38019,-40.74375,0.67141,0.93744,-0.00107,0.00665,-0.34809,0.00000,0.00000,0.00000,0.00000,1,0,
07.10 14:10:15:210,23064,-0.10436,-0.03961,9.79815,2715785002763741317562368.00000,0.00000,-0.00000,-0.24829,0.34251,-0.68308,-0.38071,-40.74235,0.67122,0.93744,-0.00108,0.00665,-0.34807,0.00000,0.00000,0.00000,0.00000,1,0,
07.10 14:10:15:218,23065,-0.10085,-0.04847,9.81390,2715785002763741317562368.00000,0.00000,-0.00000,-0.24729,0.34303,-0.68407,-0.39116,-40.74356,0.67266,0.93744,-0.00116,0.00669,-0.34808,0.00000,0.00000,0.00000,0.00000,1,0,
07.10 14:10:15:229,23066,-0.07934,-0.05383,9.79359,2715785002763741317562368.00000,0.00000,-0.00000,-0.24730,0.34551,-0.68307,-0.38956,-40.74434,0.67193,0.93744,-0.00115,0.00668,-0.34809,0.00000,0.00000,0.00000,0.00000,1,0,
07.10 14:10:15:240,23067,-0.07325,-0.05373,9.78720,2715785002763741317562368.00000,0.00000,-0.00000,-0.24779,0.34452,-0.68357,-0.38844,-40.74416,0.67267,0.93744,-0.00113,0.00668,-0.34809,0.00000,0.00000,0.00000,0.00000,1,0,
07.10 14:10:15:250,23068,-0.10688,-0.06160,9.79273,2715785002763741317562368.00000,0.00000,-0.00000,-0.24680,0.34451,-0.68307,-0.38797,-40.74362,0.67268,0.93744,-0.00113,0.00668,-0.34808,0.00000,0.00000,0.00000,0.00000,1,0,
07.10 14:10:15:260,23069,-0.07869,-0.04238,9.79145,2715785002763741317562368.00000,0.00000,-0.00000,-0.24629,0.34305,-0.68506,-0.38683,-40.74408,0.67335,0.93744,-0.00112,0.00668,-0.34809,0.00000,0.00000,0.00000,0.00000,1,0,
07.10 14:10:15:269,23070,-0.10131,-0.05317,9.80978,2715785002763741317562368.00000,0.00000,-0.00000,-0.24779,0.34402,-0.68357,-0.38776,-40.74346,0.67402,0.93744,-0.00112,0.00669,-0.34808,0.00000,0.00000,0.00000,0.00000,1,0,
07.10 14:10:15:280,23071,-0.07858,-0.04594,9.79788,2715785002763741317562368.00000,0.00000,-0.00000,-0.24679,0.34505,-0.68505,-0.38833,-40.74268,0.67403,0.93744,-0.00113,0.00669,-0.34808,0.00000,0.00000,0.00000,0.00000,1,0,
07.10 14:10:15:290,23072,-0.09509,-0.04448,9.79233,2715785002763741317562368.00000,0.00000,-0.00000,-0.24978,0.34599,-0.68259,-0.38687,-40.74222,0.67339,0.93744,-0.00112,0.00668,-0.34807,0.00000,0.00000,0.00000,0.00000,1,0,
07.10 14:10:15:299,23073,-0.09119,-0.04777,9.79300,2715785002763741317562368.00000,0.00000,-0.00000,-0.24828,0.34454,-0.68457,-0.38736,-40.74175,0.67344,0.93744,-0.00112,0.00669,-0.34807,0.00000,0.00000,0.00000,0.00000,1,0,
07.10 14:10:15:308,23074,-0.09599,-0.04249,9.79784,2715785002763741317562368.00000,0.00000,-0.00000,-0.24927,0.34404,-0.68508,-0.38587,-40.74136,0.67207,0.93745,-0.00112,0.00667,-0.34807,0.00000,0.00000,0.00000,0.00000,1,0,
07.10 14:10:15:319,23075,-0.09755,-0.05677,9.80628,2715785002763741317562368.00000,0.00000,-0.00000,-0.24728,0.34556,-0.68555,-0.38513,-40.74061,0.67234,0.93745,-0.00111,0.00667,-0.34806,0.00000,0.00000,0.00000,0.00000,1,0,
07.10 14:10:15:329,23076,-0.09770,-0.05195,9.79597,2715785002763741317562368.00000,0.00000,-0.00000,-0.24828,0.34303,-0.68408,-0.38657,-40.73887,0.67249,0.93745,-0.00112,0.00668,-0.34805,0.00000,0.00000,0.00000,0.00000,1,0,
07.10 14:10:15:340,23077,-0.08810,-0.03903,9.80761,2715785002763741317562368.00000,0.00000,-0.00000,-0.24878,0.34653,-0.68457,-0.38603,-40.73862,0.67233,0.93745,-0.00112,0.00667,-0.34804,0.00000,0.00000,0.00000,0.00000,1,0,
07.10 14:10:15:350,23078,-0.09562,-0.06193,9.81197,2715785002763741317562368.00000,0.00000,-0.00000,-0.24828,0.34454,-0.68457,-0.38526,-40.73898,0.67354,0.93745,-0.00111,0.00668,-0.34805,0.00000,0.00000,0.00000,0.00000,1,0,
07.10 14:10:15:359,23079,-0.10122,-0.04082,9.78897,2715785002763741317562368.00000,0.00000,-0.00000,-0.24878,0.34302,-0.68358,-0.38458,-40.73779,0.67395,0.93746,-0.00110,0.00668,-0.34804,0.00000,0.00000,0.00000,0.00000,1,0,
07.10 14:10:15:369,23080,-0.09737,-0.03839,9.79314,2715785002763741317562368.00000,0.00000,-0.00000,-0.24779,0.34552,-0.68357,-0.38504,-40.73759,0.67402,0.93746,-0.00110,0.00668,-0.34804,0.00000,0.00000,0.00000,0.00000,1,0,
07.10 14:10:15:379,23081,-0.09491,-0.04454,9.80056,2715785002763741317562368.00000,0.00000,-0.00000,-0.24581,0.34401,-0.68306,-0.38402,-40.73745,0.67373,0.93746,-0.00110,0.00668,-0.34803,0.00000,0.00000,0.00000,0.00000,1,0,
07.10 14:10:15:389,23082,-0.10146,-0.03940,9.79648,2715785002763741317562368.00000,0.00000,-0.00000,-0.24879,0.34600,-0.68308,-0.38422,-40.73669,0.67503,0.93746,-0.00109,0.00669,-0.34803,0.00000,0.00000,0.00000,0.00000,1,0,
07.10 14:10:15:400,23083,-0.08219,-0.03259,9.79183,2715785002763741317562368.00000,0.00000,-0.00000,-0.24779,0.34553,-0.68407,-0.38416,-40.73676,0.67487,0.93746,-0.00109,0.00669,-0.34803,0.00000,0.00000,0.00000,0.00000,1,0,
07.10 14:10:15:410,23084,-0.09711,-0.05532,9.79781,2715785002763741317562368.00000,0.00000,-0.00000,-0.24728,0.34356,-0.68556,-0.38312,-40.73761,0.67509,0.93746,-0.00108,0.00669,-0.34804,0.00000,0.00000,0.00000,0.00000,1,0,
07.10 14:10:15:420,23085,-0.08697,-0.02881,9.79629,2715785002763741317562368.00000,0.00000,-0.00000,-0.24878,0.34502,-0.68408,-0.38282,-40.73661,0.67437,0.93746,-0.00108,0.00668,-0.34803,0.00000,0.00000,0.00000,0.00000,1,0,
07.10 14:10:15:430,23086,-0.11260,-0.05453,9.80992,2715785002763741317562368.00000,0.00000,-0.00000,-0.24779,0.34301,-0.68308,-0.38357,-40.73651,0.67336,0.93746,-0.00109,0.00667,-0.34803,0.00000,0.00000,0.00000,0.00000,1,0,
07.10 14:10:15:439,23087,-0.10944,-0.06069,9.80158,2715785002763741317562368.00000,0.00000,-0.00000,-0.24680,0.34551,-0.68306,-0.38275,-40.73615,0.67346,0.93746,-0.00109,0.00667,-0.34802,0.00000,0.00000,0.00000,0.00000,1,0,
07.10 14:10:15:449,23088,-0.08684,-0.05245,9.79421,2715785002763741317562368.00000,0.00000,-0.00000,-0.24928,0.34400,-0.68309,-0.38242,-40.73562,0.67308,0.93746,-0.00108,0.00667,-0.34802,0.00000,0.00000,0.00000,0.00000,1,0,
07.10 14:10:15:459,23089,-0.09519,-0.04892,9.78496,2715785002763741317562368.00000,0.00000,-0.00000,-0.24828,0.34555,-0.68556,-0.38161,-40.73503,0.67353,0.93746,-0.00108,0.00667,-0.34801,0.00000,0.00000,0.00000,0.00000,1,0,
07.10 14:10:15:468,23090,-0.10685,-0.03654,9.80785,2715785002763741317562368.00000,0.00000,-0.00000,-0.24927,0.34603,-0.68457,-0.38045,-40.73524,0.67438,0.93746,-0.00106,0.00667,-0.34802,0.00000,0.00000,0.00000,0.00000,1,0,
07.10 14:10:15:479,23091,-0.08966,-0.05687,9.80008,2715785002763741317562368.00000,0.00000,-0.00000,-0.24778,0.34354,-0.68457,-0.38120,-40.73480,0.67460,0.93747,-0.00107,0.00668,-0.34801,0.00000,0.00000,0.00000,0.00000,1,0,
07.10 14:10:15:490,23092,-0.10088,-0.04782,9.79624,2715785002763741317562368.00000,0.00000,-0.00000,-0.24878,0.34453,-0.68457,-0.38196,-40.73437,0.67470,0.93747,-0.00108,0.00668,-0.34801,0.00000,0.00000,0.00000,0.00000,1,0,
07.10 14:10:15:499,23093,-0.06774,-0.04271,9.78780,2715785002763741317562368.00000,0.00000,-0.00000,-0.24929,0.34448,-0.68209,-0.38087,-40.73383,0.67370,0.93747,-0.00107,0.00667,-0.34800,0.00000,0.00000,0.00000,0.00000,1,0,
07.10 14:10:15:509,23094,-0.08070,-0.03334,9.79617,2715785002763741317562368.00000,0.00000,-0.00000,-0.24676,0.34267,-0.69104,-0.38034,-40.73325,0.67390,0.93747,-0.00106,0.00667,-0.34800,0.00000,0.00000,0.00000,0.00000,1,0,
07.10 14:10:15:519,23095,-0.09205,-0.04756,9.80923,2715785002763741317562368.00000,0.00000,-0.00000,-0.24878,0.34351,-0.68358,-0.38103,-40.73276,0.67311,0.93747,-0.00107,0.00666,-0.34800,0.00000,0.00000,0.00000,0.00000,1,0,
07.10 14:10:15:529,23096,-0.09017,-0.04478,9.79490,2715785002763741317562368.00000,0.00000,-0.00000,-0.24928,0.34452,-0.68408,-0.38101,-40.73150,0.67305,0.93748,-0.00107,0.00666,-0.34799,0.00000,0.00000,0.00000,0.00000,1,0,
07.10 14:10:15:540,23097,-0.10717,-0.06270,9.79934,2715785002763741317562368.00000,0.00000,-0.00000,-0.24827,0.34408,-0.68656,-0.38078,-40.73074,0.67319,0.93748,-0.00107,0.00666,-0.34798,0.00000,0.00000,0.00000,0.00000,1,0,
07.10 14:10:15:549,23098,-0.08476,-0.04684,9.80639,2715785002763741317562368.00000,0.00000,-0.00000,-0.24976,0.34457,-0.68657,-0.37895,-40.73042,0.67227,0.93748,-0.00106,0.00665,-0.34798,0.00000,0.00000,0.00000,0.00000,1,0,
07.10 14:10:15:560,23099,-0.09926,-0.05302,9.80291,2715785002763741317562368.00000,0.00000,-0.00000,-0.24828,0.34456,-0.68557,-0.37758,-40.72977,0.67202,0.93748,-0.00105,0.00664,-0.34797,0.00000,0.00000,0.00000,0.00000,1,0,
07.10 14:10:15:569,23100,-0.10464,-0.06433,9.79359,2715785002763741317562368.00000,0.00000,-0.00000,-0.24829,0.34601,-0.68357,-0.37812,-40.72975,0.67186,0.93748,-0.00105,0.00664,-0.34797,0.00000,0.00000,0.00000,0.00000,1,0,
07.10 14:10:15:580,23101,-0.10039,-0.04411,9.80165,2715785002763741317562368.00000,0.00000,-0.00000,-0.24778,0.34355,-0.68507,-0.37865,-40.72890,0.67143,0.93748,-0.00106,0.00664,-0.34796,0.00000,0.00000,0.00000,0.00000,1,0,
07.10 14:10:15:590,23102,-0.09912,-0.04991,9.81247,2715785002763741317562368.00000,0.00000,-0.00000,-0.24778,0.34254,-0.68457,-0.37896,-40.72856,0.67044,0.93748,-0.00106,0.00664,-0.34796,0.00000,0.00000,0.00000,0.00000,1,0,
07.10 14:10:15:599,23103,-0.08237,-0.04467,9.78758,2715785002763741317562368.00000,0.00000,-0.00000,-0.24779,0.34352,-0.68357,-0.38022,-40.72851,0.67031,0.93748,-0.00108,0.00664,-0.34796,0.00000,0.00000,0.00000,0.00000,1,0,
07.10 14:10:15:610,23104,-0.10977,-0.04287,9.79114,2715785002763741317562368.00000,0.00000,-0.00000,-0.24729,0.34402,-0.68357,-0.37977,-40.72839,0.66929,0.93749,-0.00107,0.00663,-0.34796,0.00000,0.00000,0.00000,0.00000,1,0,
07.10 14:10:15:620,23105,-0.09416,-0.04291,9.79552,2715785002763741317562368.00000,0.00000,-0.00000,-0.24927,0.34553,-0.68458,-0.37938,-40.72690,0.66892,0.93749,-0.00107,0.00662,-0.34795,0.00000,0.00000,0.00000,0.00000,1,0,
07.10 14:10:15:630,23106,-0.08763,-0.04068,9.79808,2715785002763741317562368.00000,0.00000,-0.00000,-0.24927,0.34403,-0.68458,-0.38107,-40.72611,0.66940,0.93749,-0.00108,0.00663,-0.34794,0.00000,0.00000,0.00000,0.00000,1,0,
07.10 14:10:15:640,23107,-0.10109,-0.03827,9.78828,2715785002763741317562368.00000,0.00000,-0.00000,-0.24829,0.34501,-0.68357,-0.38049,-40.72648,0.66949,0.93749,-0.00108,0.00663,-0.34794,0.00000,0.00000,0.00000,0.00000,1,0,
07.10 14:10:15:650,23108,-0.08934,-0.05601,9.79984,2715785002763741317562368.00000,0.00000,-0.00000,-0.24681,0.34549,-0.68207,-0.38007,-40.72636,0.66918,0.93749,-0.00108,0.00663,-0.34794,0.00000,0.00000,0.00000,0.00000,1,0,
07.10 14:10:15:660,23109,-0.09300,-0.04249,9.80358,2715785002763741317562368.00000,0.00000,-0.00000,-0.24632,0.34396,-0.68058,-0.38066,-40.72495,0.66885,0.93750,-0.00108,0.00663,-0.34793,0.00000,0.00000,0.00000,0.00000,1,0,
07.10 14:10:15:669,23110,-0.08920,-0.03603,9.79297,2715785002763741317562368.00000,0.00000,-0.00000,-0.24680,0.34552,-0.68356,-0.38194,-40.72428,0.66859,0.93750,-0.00109,0.00663,-0.34793,0.00000,0.00000,0.00000,0.00000,1,0,
07.10 14:10:15:680,23111,-0.07928,-0.06504,9.81269,2715785002763741317562368.00000,0.00000,-0.00000,-0.24779,0.34450,-0.68258,-0.38130,-40.72474,0.67020,0.93750,-0.00108,0.00664,-0.34793,0.00000,0.00000,0.00000,0.00000,1,0,
07.10 14:10:15:689,23112,-0.08630,-0.05592,9.80592,2715785002763741317562368.00000,0.00000,-0.00000,-0.24877,0.34455,-0.68557,-0.38170,-40.72327,0.67000,0.93750,-0.00109,0.00664,-0.34792,0.00000,0.00000,0.00000,0.00000,1,0,
07.10 14:10:15:700,23113,-0.10089,-0.03510,9.79929,2715785002763741317562368.00000,0.00000,-0.00000,-0.24879,0.34398,-0.68209,-0.38106,-40.72221,0.67025,0.93750,-0.00108,0.00664,-0.34791,0.00000,0.00000,0.00000,0.00000,1,0,
07.10 14:10:15:710,23114,-0.11291,-0.03640,9.80005,2715785002763741317562368.00000,0.00000,-0.00000,-0.24778,0.34404,-0.68457,-0.37841,-40.72192,0.67105,0.93750,-0.00106,0.00664,-0.34791,0.00000,0.00000,0.00000,0.00000,1,0,
07.10 14:10:15:720,23115,-0.09543,-0.05386,9.79769,2715785002763741317562368.00000,0.00000,-0.00000,-0.24830,0.34497,-0.68158,-0.37805,-40.72177,0.66961,0.93751,-0.00106,0.00663,-0.34791,0.00000,0.00000,0.00000,0.00000,1,0,
07.10 14:10:15:729,23116,-0.09329,-0.05719,9.81293,2715785002763741317562368.00000,0.00000,-0.00000,-0.24978,0.34500,-0.68309,-0.37756,-40.72131,0.67065,0.93751,-0.00105,0.00663,-0.34790,0.00000,0.00000,0.00000,0.00000,1,0,
07.10 14:10:15:739,23117,-0.10760,-0.04105,9.80051,2715785002763741317562368.00000,0.00000,-0.00000,-0.24729,0.34352,-0.68357,-0.37664,-40.72118,0.67009,0.93751,-0.00105,0.00663,-0.34790,0.00000,0.00000,0.00000,0.00000,1,0,
07.10 14:10:15:750,23118,-0.09575,-0.06185,9.79123,2715785002763741317562368.00000,0.00000,-0.00000,-0.24829,0.34500,-0.68308,-0.37712,-40.71974,0.66905,0.93751,-0.00105,0.00662,-0.34789,0.00000,0.00000,0.00000,0.00000,1,0,
07.10 14:10:15:760,23119,-0.09709,-0.03459,9.77638,2715785002763741317562368.00000,0.00000,-0.00000,-0.24778,0.34556,-0.68556,-0.37763,-40.71819,0.67001,0.93752,-0.00106,0.00663,-0.34788,0.00000,0.00000,0.00000,0.00000,1,0,
07.10 14:10:15:769,23120,-0.09437,-0.04430,9.79028,2715785002763741317562368.00000,0.00000,-0.00000,-0.24829,0.34648,-0.68208,-0.37657,-40.71813,0.66960,0.93752,-0.00105,0.00662,-0.34788,0.00000,0.00000,0.00000,0.00000,1,0,
07.10 14:10:15:779,23121,-0.11140,-0.03790,9.78959,2715785002763741317562368.00000,0.00000,-0.00000,-0.24679,0.34554,-0.68456,-0.37656,-40.71710,0.67037,0.93752,-0.00105,0.00663,-0.34787,0.00000,0.00000,0.00000,0.00000,1,0,
07.10 14:10:15:789,23122,-0.08832,-0.03246,9.81345,2715785002763741317562368.00000,0.00000,-0.00000,-0.24679,0.34606,-0.68555,-0.37588,-40.71675,0.67039,0.93752,-0.00104,0.00663,-0.34787,0.00000,0.00000,0.00000,0.00000,1,0,
07.10 14:10:15:799,23123,-0.08936,-0.04789,9.80613,2715785002763741317562368.00000,0.00000,-0.00000,-0.24829,0.34499,-0.68258,-0.37453,-40.71789,0.67095,0.93752,-0.00103,0.00663,-0.34787,0.00000,0.00000,0.00000,0.00000,1,0,
07.10 14:10:15:810,23124,-0.09118,-0.03585,9.79538,2715785002763741317562368.00000,0.00000,-0.00000,-0.24728,0.34308,-0.68656,-0.37352,-40.71826,0.67068,0.93752,-0.00102,0.00662,-0.34788,0.00000,0.00000,0.00000,0.00000,1,0,
07.10 14:10:15:820,23125,-0.07400,-0.05695,9.79776,2715785002763741317562368.00000,0.00000,-0.00000,-0.24729,0.34252,-0.68357,-0.37434,-40.71831,0.67028,0.93752,-0.00103,0.00662,-0.34788,0.00000,0.00000,0.00000,0.00000,1,0,
07.10 14:10:15:829,23126,-0.08435,-0.04469,9.79631,2715785002763741317562368.00000,0.00000,-0.00000,-0.24876,0.34461,-0.68856,-0.37401,-40.71898,0.67001,0.93751,-0.00103,0.00662,-0.34788,0.00000,0.00000,0.00000,0.00000,1,0,
07.10 14:10:15:840,23127,-0.09681,-0.05659,9.80279,2715785002763741317562368.00000,0.00000,-0.00000,-0.24730,0.34350,-0.68258,-0.37443,-40.71808,0.66981,0.93752,-0.00103,0.00662,-0.34788,0.00000,0.00000,0.00000,0.00000,1,0,
07.10 14:10:15:850,23128,-0.09442,-0.04734,9.78770,2715785002763741317562368.00000,0.00000,-0.00000,-0.24978,0.34497,-0.68160,-0.37762,-40.71769,0.66951,0.93752,-0.00106,0.00662,-0.34787,0.00000,0.00000,0.00000,0.00000,1,0,
07.10 14:10:15:859,23129,-0.08975,-0.05483,9.80094,2715785002763741317562368.00000,0.00000,-0.00000,-0.24729,0.34353,-0.68407,-0.37689,-40.71729,0.66990,0.93752,-0.00105,0.00662,-0.34787,0.00000,0.00000,0.00000,0.00000,1,0,
07.10 14:10:15:870,23130,-0.08481,-0.03304,9.80427,2715785002763741317562368.00000,0.00000,-0.00000,-0.24729,0.34403,-0.68407,-0.37586,-40.71716,0.66959,0.93752,-0.00104,0.00662,-0.34787,0.00000,0.00000,0.00000,0.00000,1,0,
07.10 14:10:15:879,23131,-0.09801,-0.03997,9.79815,2715785002763741317562368.00000,0.00000,-0.00000,-0.24828,0.34705,-0.68556,-0.37622,-40.71627,0.66904,0.93752,-0.00105,0.00662,-0.34786,0.00000,0.00000,0.00000,0.00000,1,0,
07.10 14:10:15:892,23132,-0.09845,-0.03882,9.79769,2715785002763741317562368.00000,0.00000,-0.00000,-0.24530,0.34654,-0.68454,-0.37649,-40.71689,0.66999,0.93752,-0.00105,0.00662,-0.34787,0.00000,0.00000,0.00000,0.00000,1,0,
07.10 14:10:15:899,23133,-0.08810,-0.03759,9.81166,2715785002763741317562368.00000,0.00000,-0.00000,-0.24730,0.34699,-0.68256,-0.37699,-40.71634,0.67039,0.93752,-0.00105,0.00663,-0.34786,0.00000,0.00000,0.00000,0.00000,1,0,
07.10 14:10:15:911,23134,-0.08908,-0.04352,9.79395,2715785002763741317562368.00000,0.00000,-0.00000,-0.24778,0.34354,-0.68457,-0.37853,-40.71539,0.67113,0.93752,-0.00106,0.00664,-0.34785,0.00000,0.00000,0.00000,0.00000,1,0,
07.10 14:10:15:919,23135,-0.09544,-0.04450,9.81016,2715785002763741317562368.00000,0.00000,-0.00000,-0.24776,0.34662,-0.68854,-0.37762,-40.71484,0.67078,0.93753,-0.00105,0.00663,-0.34785,0.00000,0.00000,0.00000,0.00000,1,0,
07.10 14:10:15:930,23136,-0.07600,-0.03520,9.80756,2715785002763741317562368.00000,0.00000,-0.00000,-0.25027,0.34551,-0.68359,-0.37860,-40.71418,0.67051,0.93753,-0.00106,0.00664,-0.34784,0.00000,0.00000,0.00000,0.00000,1,0,
07.10 14:10:15:942,23137,-0.09897,-0.03145,9.80313,2715785002763741317562368.00000,0.00000,-0.00000,-0.24927,0.34305,-0.68558,-0.37850,-40.71374,0.67027,0.93753,-0.00106,0.00663,-0.34784,0.00000,0.00000,0.00000,0.00000,1,0,
07.10 14:10:15:950,23138,-0.08593,-0.03646,9.81119,2715785002763741317562368.00000,0.00000,-0.00000,-0.24530,0.34405,-0.68505,-0.37801,-40.71418,0.67080,0.93753,-0.00106,0.00664,-0.34784,0.00000,0.00000,0.00000,0.00000,1,0,
07.10 14:10:15:961,23139,-0.09974,-0.05256,9.80475,2715785002763741317562368.00000,0.00000,-0.00000,-0.24878,0.34350,-0.68309,-0.37932,-40.71431,0.67022,0.93753,-0.00107,0.00663,-0.34785,0.00000,0.00000,0.00000,0.00000,1,0,
07.10 14:10:15:969,23140,-0.09614,-0.04746,9.80663,2715785002763741317562368.00000,0.00000,-0.00000,-0.24777,0.34259,-0.68706,-0.37976,-40.71400,0.67077,0.93753,-0.00107,0.00664,-0.34784,0.00000,0.00000,0.00000,0.00000,1,0,
07.10 14:10:15:979,23141,-0.09412,-0.03882,9.79276,2715785002763741317562368.00000,0.00000,-0.00000,-0.24927,0.34404,-0.68508,-0.37947,-40.71346,0.67097,0.93753,-0.00107,0.00664,-0.34784,0.00000,0.00000,0.00000,0.00000,1,0,
07.10 14:10:15:990,23142,-0.08542,-0.03761,9.79324,2715785002763741317562368.00000,0.00000,-0.00000,-0.24826,0.34561,-0.68855,-0.37908,-40.71321,0.67229,0.93753,-0.00106,0.00665,-0.34784,0.00000,0.00000,0.00000,0.00000,1,0,
07.10 14:10:15:999,23143,-0.09815,-0.05640,9.79266,2715785002763741317562368.00000,0.00000,-0.00000,-0.24531,0.34502,-0.68355,-0.37963,-40.71257,0.67240,0.93753,-0.00106,0.00665,-0.34783,0.00000,0.00000,0.00000,0.00000,1,0,
07.10 14:10:16:009,23144,-0.07299,-0.06963,9.78296,2715785002763741317562368.00000,0.00000,-0.00000,-0.24729,0.34453,-0.68407,-0.38168,-40.71152,0.67252,0.93754,-0.00108,0.00666,-0.34782,0.00000,0.00000,0.00000,0.00000,1,0,
07.10 14:10:16:020,23145,-0.10461,-0.04685,9.79960,2715785002763741317562368.00000,0.00000,-0.00000,-0.24927,0.34302,-0.68409,-0.38234,-40.71054,0.67267,0.93754,-0.00109,0.00666,-0.34781,0.00000,0.00000,0.00000,0.00000,1,0,
07.10 14:10:16:029,23146,-0.08802,-0.04790,9.81388,2715785002763741317562368.00000,0.00000,-0.00000,-0.24729,0.34353,-0.68407,-0.38248,-40.71056,0.67246,0.93754,-0.00109,0.00666,-0.34781,0.00000,0.00000,0.00000,0.00000,1,0,
07.10 14:10:16:039,23147,-0.10172,-0.03945,9.79824,2715785002763741317562368.00000,0.00000,-0.00000,-0.24927,0.34453,-0.68458,-0.38189,-40.71028,0.67220,0.93754,-0.00108,0.00666,-0.34781,0.00000,0.00000,0.00000,0.00000,1,0,
07.10 14:10:16:049,23148,-0.08960,-0.06253,9.79619,2715785002763741317562368.00000,0.00000,-0.00000,-0.24929,0.34498,-0.68209,-0.38202,-40.71002,0.67225,0.93754,-0.00108,0.00666,-0.34781,0.00000,0.00000,0.00000,0.00000,1,0,
07.10 14:10:16:060,23149,-0.11077,-0.04957,9.79943,2715785002763741317562368.00000,0.00000,-0.00000,-0.24877,0.34554,-0.68507,-0.38329,-40.71028,0.67195,0.93754,-0.00110,0.00666,-0.34781,0.00000,0.00000,0.00000,0.00000,1,0,
07.10 14:10:16:069,23150,-0.08795,-0.04286,9.80108,2715785002763741317562368.00000,0.00000,-0.00000,-0.24878,0.34450,-0.68308,-0.38229,-40.71059,0.67131,0.93754,-0.00109,0.00665,-0.34781,0.00000,0.00000,0.00000,0.00000,1,0,
07.10 14:10:16:080,23151,-0.09724,-0.03903,9.79774,2715785002763741317562368.00000,0.00000,-0.00000,-0.24928,0.34601,-0.68358,-0.38347,-40.71074,0.67101,0.93754,-0.00110,0.00665,-0.34782,0.00000,0.00000,0.00000,0.00000,1,0,
07.10 14:10:16:089,23152,-0.08348,-0.06038,9.79657,2715785002763741317562368.00000,0.00000,-0.00000,-0.24879,0.34249,-0.68209,-0.38574,-40.70926,0.67028,0.93754,-0.00112,0.00665,-0.34780,0.00000,0.00000,0.00000,0.00000,1,0,
07.10 14:10:16:099,23153,-0.08974,-0.03725,9.78820,2715785002763741317562368.00000,0.00000,-0.00000,-0.24730,0.34501,-0.68307,-0.38488,-40.71003,0.67039,0.93754,-0.00111,0.00665,-0.34781,0.00000,0.00000,0.00000,0.00000,1,0,
07.10 14:10:16:110,23154,-0.10093,-0.05213,9.80167,2715785002763741317562368.00000,0.00000,-0.00000,-0.24827,0.34656,-0.68606,-0.38535,-40.70995,0.67059,0.93754,-0.00112,0.00666,-0.34781,0.00000,0.00000,0.00000,0.00000,1,0,
07.10 14:10:16:119,23155,-0.08965,-0.02557,9.80186,2715785002763741317562368.00000,0.00000,-0.00000,-0.24977,0.34353,-0.68459,-0.38694,-40.70897,0.67110,0.93754,-0.00113,0.00667,-0.34780,0.00000,0.00000,0.00000,0.00000,1,0,
07.10 14:10:16:129,23156,-0.09421,-0.04457,9.80010,2715785002763741317562368.00000,0.00000,-0.00000,-0.24976,0.34605,-0.68557,-0.38695,-40.70872,0.67103,0.93754,-0.00113,0.00666,-0.34780,0.00000,0.00000,0.00000,0.00000,1,0,
07.10 14:10:16:139,23157,-0.10043,-0.04713,9.80518,2715785002763741317562368.00000,0.00000,-0.00000,-0.24728,0.34557,-0.68605,-0.38645,-40.70846,0.67058,0.93755,-0.00113,0.00666,-0.34780,0.00000,0.00000,0.00000,0.00000,1,0,
07.10 14:10:16:149,23158,-0.10339,-0.04069,9.79385,2715785002763741317562368.00000,0.00000,-0.00000,-0.24531,0.34251,-0.68256,-0.38671,-40.70870,0.67069,0.93754,-0.00113,0.00666,-0.34780,0.00000,0.00000,0.00000,0.00000,1,0,
07.10 14:10:16:160,23159,-0.09508,-0.04053,9.79836,2715785002763741317562368.00000,0.00000,-0.00000,-0.24628,0.34358,-0.68655,-0.38680,-40.70749,0.67063,0.93755,-0.00113,0.00666,-0.34779,0.00000,0.00000,0.00000,0.00000,1,0,
07.10 14:10:16:169,23160,-0.12149,-0.03630,9.80621,2715785002763741317562368.00000,0.00000,-0.00000,-0.24828,0.34554,-0.68507,-0.38659,-40.70758,0.66994,0.93755,-0.00113,0.00665,-0.34779,0.00000,0.00000,0.00000,0.00000,1,0,
07.10 14:10:16:179,23161,-0.10466,-0.04490,9.81188,2715785002763741317562368.00000,0.00000,-0.00000,-0.24778,0.34507,-0.68606,-0.38635,-40.70797,0.66916,0.93755,-0.00113,0.00665,-0.34779,0.00000,0.00000,0.00000,0.00000,1,0,
07.10 14:10:16:189,23162,-0.10468,-0.06075,9.79836,2715785002763741317562368.00000,0.00000,-0.00000,-0.24678,0.34607,-0.68605,-0.38499,-40.70742,0.66831,0.93755,-0.00112,0.00664,-0.34779,0.00000,0.00000,0.00000,0.00000,1,0,
07.10 14:10:16:199,23163,-0.10920,-0.04028,9.81503,2715785002763741317562368.00000,0.00000,-0.00000,-0.24828,0.34454,-0.68457,-0.38320,-40.70742,0.66870,0.93755,-0.00111,0.00663,-0.34779,0.00000,0.00000,0.00000,0.00000,1,0,
07.10 14:10:16:209,23164,-0.08550,-0.05910,9.79450,2715785002763741317562368.00000,0.00000,-0.00000,-0.24777,0.34309,-0.68706,-0.38398,-40.70662,0.66886,0.93755,-0.00111,0.00664,-0.34778,0.00000,0.00000,0.00000,0.00000,1,0,
07.10 14:10:16:219,23165,-0.09250,-0.03463,9.81126,2715785002763741317562368.00000,0.00000,-0.00000,-0.24974,0.34566,-0.69105,-0.38501,-40.70588,0.66884,0.93755,-0.00112,0.00664,-0.34778,0.00000,0.00000,0.00000,0.00000,1,0,
07.10 14:10:16:229,23166,-0.08610,-0.03455,9.80203,2715785002763741317562368.00000,0.00000,-0.00000,-0.24927,0.34303,-0.68458,-0.38477,-40.70570,0.66833,0.93755,-0.00112,0.00664,-0.34777,0.00000,0.00000,0.00000,0.00000,1,0,
07.10 14:10:16:239,23167,-0.09259,-0.05738,9.78205,2715785002763741317562368.00000,0.00000,-0.00000,-0.24825,0.34464,-0.68955,-0.38354,-40.70584,0.66861,0.93755,-0.00111,0.00663,-0.34778,0.00000,0.00000,0.00000,0.00000,1,0,
07.10 14:10:16:249,23168,-0.08566,-0.03656,9.80604,2715785002763741317562368.00000,0.00000,-0.00000,-0.24828,0.34502,-0.68407,-0.38230,-40.70610,0.66869,0.93755,-0.00110,0.00663,-0.34778,0.00000,0.00000,0.00000,0.00000,1,0,
07.10 14:10:16:259,23169,-0.09910,-0.04412,9.79090,2715785002763741317562368.00000,0.00000,-0.00000,-0.24679,0.34356,-0.68556,-0.38356,-40.70572,0.66863,0.93755,-0.00111,0.00663,-0.34777,0.00000,0.00000,0.00000,0.00000,1,0,
07.10 14:10:16:269,23170,-0.10156,-0.04944,9.79936,2715785002763741317562368.00000,0.00000,-0.00000,-0.24679,0.34605,-0.68505,-0.38376,-40.70572,0.66833,0.93755,-0.00111,0.00663,-0.34777,0.00000,0.00000,0.00000,0.00000,1,0,
07.10 14:10:16:279,23171,-0.07345,-0.05462,9.80084,2715785002763741317562368.00000,0.00000,-0.00000,-0.24727,0.34160,-0.68756,-0.38347,-40.70449,0.66852,0.93756,-0.00111,0.00663,-0.34776,0.00000,0.00000,0.00000,0.00000,1,0,
07.10 14:10:16:290,23172,-0.09504,-0.05447,9.80222,2715785002763741317562368.00000,0.00000,-0.00000,-0.24778,0.34506,-0.68556,-0.38289,-40.70497,0.66840,0.93756,-0.00110,0.00663,-0.34777,0.00000,0.00000,0.00000,0.00000,1,0,
07.10 14:10:16:301,23173,-0.11319,-0.03411,9.79116,2715785002763741317562368.00000,0.00000,-0.00000,-0.24976,0.34505,-0.68558,-0.38415,-40.70428,0.66744,0.93756,-0.00112,0.00663,-0.34776,0.00000,0.00000,0.00000,0.00000,1,0,
07.10 14:10:16:308,23174,-0.09012,-0.05180,9.79633,2715785002763741317562368.00000,0.00000,-0.00000,-0.24580,0.34355,-0.68505,-0.38312,-40.70495,0.66766,0.93756,-0.00111,0.00663,-0.34777,0.00000,0.00000,0.00000,0.00000,1,0,
07.10 14:10:16:318,23175,-0.10836,-0.04556,9.80506,2715785002763741317562368.00000,0.00000,-0.00000,-0.24729,0.34505,-0.68506,-0.38440,-40.70345,0.66742,0.93756,-0.00112,0.00663,-0.34776,0.00000,0.00000,0.00000,0.00000,1,0,
07.10 14:10:16:330,23176,-0.08916,-0.04632,9.81326,2715785002763741317562368.00000,0.00000,-0.00000,-0.24728,0.34557,-0.68605,-0.38443,-40.70228,0.66813,0.93756,-0.00112,0.00663,-0.34775,0.00000,0.00000,0.00000,0.00000,1,0,
07.10 14:10:16:339,23177,-0.08301,-0.05899,9.81250,2715785002763741317562368.00000,0.00000,-0.00000,-0.24680,0.34402,-0.68357,-0.38444,-40.70152,0.66902,0.93757,-0.00112,0.00664,-0.34774,0.00000,0.00000,0.00000,0.00000,1,0,
07.10 14:10:16:349,23178,-0.08614,-0.03535,9.80833,2715785002763741317562368.00000,0.00000,-0.00000,-0.24481,0.34504,-0.68454,-0.38363,-40.70144,0.66929,0.93757,-0.00111,0.00664,-0.34774,0.00000,0.00000,0.00000,0.00000,1,0,
07.10 14:10:16:359,23179,-0.08292,-0.04636,9.79498,2715785002763741317562368.00000,0.00000,-0.00000,-0.24728,0.34606,-0.68555,-0.38332,-40.70086,0.66941,0.93757,-0.00110,0.00664,-0.34773,0.00000,0.00000,0.00000,0.00000,1,0,
07.10 14:10:16:369,23180,-0.07958,-0.05675,9.80334,2715785002763741317562368.00000,0.00000,-0.00000,-0.24828,0.34406,-0.68557,-0.38159,-40.70066,0.66912,0.93757,-0.00109,0.00663,-0.34773,0.00000,0.00000,0.00000,0.00000,1,0,
07.10 14:10:16:379,23181,-0.10770,-0.04731,9.80656,2715785002763741317562368.00000,0.00000,-0.00000,-0.24730,0.34651,-0.68306,-0.38366,-40.70043,0.66865,0.93757,-0.00111,0.00664,-0.34773,0.00000,0.00000,0.00000,0.00000,1,0,
07.10 14:10:16:389,23182,-0.08668,-0.04942,9.79683,2715785002763741317562368.00000,0.00000,-0.00000,-0.24778,0.34355,-0.68507,-0.38434,-40.70002,0.66865,0.93757,-0.00112,0.00664,-0.34773,0.00000,0.00000,0.00000,0.00000,1,0,
07.10 14:10:16:399,23183,-0.09125,-0.04572,9.80139,2715785002763741317562368.00000,0.00000,-0.00000,-0.24829,0.34501,-0.68357,-0.38350,-40.69914,0.66844,0.93757,-0.00111,0.00663,-0.34772,0.00000,0.00000,0.00000,0.00000,1,0,
07.10 14:10:16:409,23184,-0.09537,-0.04959,9.80039,2715785002763741317562368.00000,0.00000,-0.00000,-0.24728,0.34458,-0.68655,-0.38349,-40.69887,0.66820,0.93757,-0.00111,0.00663,-0.34772,0.00000,0.00000,0.00000,0.00000,1,0,
07.10 14:10:16:419,23185,-0.10273,-0.05457,9.79254,2715785002763741317562368.00000,0.00000,-0.00000,-0.24926,0.34507,-0.68657,-0.38280,-40.69884,0.66756,0.93757,-0.00111,0.00662,-0.34772,0.00000,0.00000,0.00000,0.00000,1,0,
07.10 14:10:16:429,23186,-0.08545,-0.05676,9.79321,2715785002763741317562368.00000,0.00000,-0.00000,-0.25075,0.34656,-0.68608,-0.38094,-40.69838,0.66774,0.93758,-0.00109,0.00662,-0.34771,0.00000,0.00000,0.00000,0.00000,1,0,
07.10 14:10:16:439,23187,-0.10832,-0.03658,9.80110,2715785002763741317562368.00000,0.00000,-0.00000,-0.24878,0.34304,-0.68458,-0.38142,-40.69852,0.66793,0.93758,-0.00109,0.00662,-0.34772,0.00000,0.00000,0.00000,0.00000,1,0,
07.10 14:10:16:449,23188,-0.12356,-0.04846,9.79893,2715785002763741317562368.00000,0.00000,-0.00000,-0.24728,0.34609,-0.68705,-0.38150,-40.69765,0.66784,0.93758,-0.00109,0.00662,-0.34771,0.00000,0.00000,0.00000,0.00000,1,0,
07.10 14:10:16:460,23189,-0.08605,-0.05521,9.80163,2715785002763741317562368.00000,0.00000,-0.00000,-0.24927,0.34252,-0.68409,-0.38204,-40.69791,0.66776,0.93758,-0.00110,0.00662,-0.34771,0.00000,0.00000,0.00000,0.00000,1,0,
07.10 14:10:16:469,23190,-0.09008,-0.04105,9.80036,2715785002763741317562368.00000,0.00000,-0.00000,-0.25127,0.34249,-0.68261,-0.38230,-40.69783,0.66689,0.93758,-0.00110,0.00662,-0.34771,0.00000,0.00000,0.00000,0.00000,1,0,
07.10 14:10:16:479,23191,-0.08252,-0.05616,9.78601,2715785002763741317562368.00000,0.00000,-0.00000,-0.24679,0.34504,-0.68456,-0.38455,-40.69623,0.66718,0.93758,-0.00112,0.00663,-0.34770,0.00000,0.00000,0.00000,0.00000,1,0,
07.10 14:10:16:489,23192,-0.09210,-0.03697,9.80446,2715785002763741317562368.00000,0.00000,-0.00000,-0.24778,0.34456,-0.68556,-0.38347,-40.69630,0.66732,0.93758,-0.00111,0.00662,-0.34770,0.00000,0.00000,0.00000,0.00000,1,0,
07.10 14:10:16:499,23193,-0.08683,-0.04314,9.80458,2715785002763741317562368.00000,0.00000,-0.00000,-0.24829,0.34701,-0.68357,-0.38247,-40.69581,0.66780,0.93758,-0.00110,0.00662,-0.34769,0.00000,0.00000,0.00000,0.00000,1,0,
07.10 14:10:16:510,23194,-0.09982,-0.04361,9.79621,2715785002763741317562368.00000,0.00000,-0.00000,-0.24481,0.34255,-0.68455,-0.38319,-40.69537,0.66602,0.93759,-0.00111,0.00661,-0.34769,0.00000,0.00000,0.00000,0.00000,1,0,
07.10 14:10:16:519,23195,-0.09674,-0.05809,9.79910,2715785002763741317562368.00000,0.00000,-0.00000,-0.24828,0.34503,-0.68457,-0.38281,-40.69519,0.66577,0.93759,-0.00111,0.00661,-0.34769,0.00000,0.00000,0.00000,0.00000,1,0,
07.10 14:10:16:529,23196,-0.09939,-0.04207,9.80928,2715785002763741317562368.00000,0.00000,-0.00000,-0.24978,0.34400,-0.68309,-0.38311,-40.69427,0.66569,0.93759,-0.00111,0.00661,-0.34768,0.00000,0.00000,0.00000,0.00000,1,0,
07.10 14:10:16:539,23197,-0.08672,-0.06295,9.78580,2715785002763741317562368.00000,0.00000,-0.00000,-0.24679,0.34353,-0.68406,-0.38383,-40.69371,0.66570,0.93759,-0.00112,0.00661,-0.34768,0.00000,0.00000,0.00000,0.00000,1,0,
07.10 14:10:16:549,23198,-0.09839,-0.04275,9.79302,2715785002763741317562368.00000,0.00000,-0.00000,-0.24678,0.34457,-0.68605,-0.38404,-40.69368,0.66544,0.93759,-0.00112,0.00661,-0.34768,0.00000,0.00000,0.00000,0.00000,1,0,
07.10 14:10:16:559,23199,-0.10324,-0.02494,9.80322,2715785002763741317562368.00000,0.00000,-0.00000,-0.24778,0.34455,-0.68506,-0.38379,-40.69341,0.66494,0.93759,-0.00112,0.00661,-0.34767,0.00000,0.00000,0.00000,0.00000,1,0,
07.10 14:10:16:570,23200,-0.10005,-0.05754,9.80401,2715785002763741317562368.00000,0.00000,-0.00000,-0.24929,0.34398,-0.68209,-0.38333,-40.69217,0.66491,0.93760,-0.00112,0.00660,-0.34766,0.00000,0.00000,0.00000,0.00000,1,0,
07.10 14:10:16:579,23201,-0.08468,-0.03057,9.78906,2715785002763741317562368.00000,0.00000,-0.00000,-0.24679,0.34253,-0.68407,-0.38290,-40.69108,0.66518,0.93760,-0.00111,0.00660,-0.34765,0.00000,0.00000,0.00000,0.00000,1,0,
07.10 14:10:16:589,23202,-0.09834,-0.03591,9.78997,2715785002763741317562368.00000,0.00000,-0.00000,-0.24678,0.34558,-0.68655,-0.38431,-40.69036,0.66671,0.93760,-0.00112,0.00662,-0.34765,0.00000,0.00000,0.00000,0.00000,1,0,
07.10 14:10:16:599,23203,-0.08374,-0.04304,9.80411,2715785002763741317562368.00000,0.00000,-0.00000,-0.24679,0.34556,-0.68555,-0.38556,-40.69062,0.66650,0.93760,-0.00113,0.00662,-0.34765,0.00000,0.00000,0.00000,0.00000,1,0,
07.10 14:10:16:609,23204,-0.09647,-0.04122,9.79521,2715785002763741317562368.00000,0.00000,-0.00000,-0.24877,0.34305,-0.68508,-0.38561,-40.69012,0.66620,0.93760,-0.00113,0.00662,-0.34765,0.00000,0.00000,0.00000,0.00000,1,0,
07.10 14:10:16:619,23205,-0.06765,-0.04624,9.79335,2715785002763741317562368.00000,0.00000,-0.00000,-0.24778,0.34456,-0.68556,-0.38478,-40.68989,0.66658,0.93760,-0.00113,0.00662,-0.34765,0.00000,0.00000,0.00000,0.00000,1,0,
07.10 14:10:16:629,23206,-0.07643,-0.05770,9.79514,2715785002763741317562368.00000,0.00000,-0.00000,-0.24878,0.34402,-0.68408,-0.38404,-40.68965,0.66661,0.93760,-0.00112,0.00662,-0.34764,0.00000,0.00000,0.00000,0.00000,1,0,
07.10 14:10:16:639,23207,-0.09955,-0.05771,9.79769,2715785002763741317562368.00000,0.00000,-0.00000,-0.24828,0.34453,-0.68407,-0.38368,-40.68901,0.66686,0.93760,-0.00112,0.00662,-0.34764,0.00000,0.00000,0.00000,0.00000,1,0,
07.10 14:10:16:649,23208,-0.09398,-0.04512,9.79593,2715785002763741317562368.00000,0.00000,-0.00000,-0.24878,0.34400,-0.68308,-0.38431,-40.68796,0.66676,0.93761,-0.00112,0.00662,-0.34763,0.00000,0.00000,0.00000,0.00000,1,0,
07.10 14:10:16:660,23209,-0.09153,-0.06204,9.78715,2715785002763741317562368.00000,0.00000,-0.00000,-0.24828,0.34105,-0.68508,-0.38440,-40.68784,0.66665,0.93761,-0.00112,0.00662,-0.34763,0.00000,0.00000,0.00000,0.00000,1,0,
07.10 14:10:16:669,23210,-0.10994,-0.04624,9.80246,2715785002763741317562368.00000,0.00000,-0.00000,-0.24976,0.34505,-0.68558,-0.38395,-40.68824,0.66582,0.93761,-0.00112,0.00661,-0.34763,0.00000,0.00000,0.00000,0.00000,1,0,
07.10 14:10:16:679,23211,-0.10158,-0.05028,9.79283,2715785002763741317562368.00000,0.00000,-0.00000,-0.24679,0.34306,-0.68556,-0.38324,-40.68747,0.66532,0.93761,-0.00112,0.00661,-0.34763,0.00000,0.00000,0.00000,0.00000,1,0,
07.10 14:10:16:689,23212,-0.09768,-0.06044,9.79185,2715785002763741317562368.00000,0.00000,-0.00000,-0.25026,0.34253,-0.68459,-0.38331,-40.68697,0.66541,0.93761,-0.00112,0.00661,-0.34762,0.00000,0.00000,0.00000,0.00000,1,0,
07.10 14:10:16:699,23213,-0.08638,-0.05456,9.80075,2715785002763741317562368.00000,0.00000,-0.00000,-0.24729,0.34553,-0.68406,-0.38184,-40.68700,0.66377,0.93761,-0.00111,0.00659,-0.34762,0.00000,0.00000,0.00000,0.00000,1,0,
07.10 14:10:16:709,23214,-0.08043,-0.05974,9.77960,2715785002763741317562368.00000,0.00000,-0.00000,-0.24678,0.34307,-0.68606,-0.38075,-40.68671,0.66300,0.93761,-0.00110,0.00658,-0.34762,0.00000,0.00000,0.00000,0.00000,1,0,
07.10 14:10:16:719,23215,-0.08730,-0.03598,9.79943,2715785002763741317562368.00000,0.00000,-0.00000,-0.24825,0.34315,-0.69005,-0.38167,-40.68622,0.66262,0.93761,-0.00111,0.00658,-0.34762,0.00000,0.00000,0.00000,0.00000,1,0,
07.10 14:10:16:728,23216,-0.10155,-0.05412,9.80027,2715785002763741317562368.00000,0.00000,-0.00000,-0.24728,0.34256,-0.68557,-0.38089,-40.68602,0.66189,0.93761,-0.00111,0.00657,-0.34761,0.00000,0.00000,0.00000,0.00000,1,0,
07.10 14:10:16:739,23217,-0.09242,-0.04126,9.80101,2715785002763741317562368.00000,0.00000,-0.00000,-0.24778,0.34555,-0.68506,-0.38076,-40.68513,0.66174,0.93762,-0.00111,0.00657,-0.34761,0.00000,0.00000,0.00000,0.00000,1,0,
07.10 14:10:16:749,23218,-0.08572,-0.04417,9.80053,2715785002763741317562368.00000,0.00000,-0.00000,-0.24729,0.34702,-0.68356,-0.38241,-40.68422,0.66262,0.93762,-0.00112,0.00658,-0.34760,0.00000,0.00000,0.00000,0.00000,1,0,
07.10 14:10:16:759,23219,-0.10828,-0.04362,9.78312,2715785002763741317562368.00000,0.00000,-0.00000,-0.24530,0.34555,-0.68504,-0.38334,-40.68287,0.66308,0.93762,-0.00113,0.00659,-0.34759,0.00000,0.00000,0.00000,0.00000,1,0,
07.10 14:10:16:769,23220,-0.07511,-0.02550,9.79452,2715785002763741317562368.00000,0.00000,-0.00000,-0.24729,0.34354,-0.68457,-0.38227,-40.68270,0.66291,0.93762,-0.00112,0.00658,-0.34759,0.00000,0.00000,0.00000,0.00000,1,0,
07.10 14:10:16:779,23221,-0.09028,-0.04449,9.78820,2715785002763741317562368.00000,0.00000,-0.00000,-0.24877,0.34354,-0.68508,-0.38166,-40.68242,0.66216,0.93763,-0.00111,0.00658,-0.34758,0.00000,0.00000,0.00000,0.00000,1,0,
07.10 14:10:16:794,23222,-0.11420,-0.03904,9.79588,2715785002763741317562368.00000,0.00000,-0.00000,-0.24728,0.34406,-0.68556,-0.38119,-40.68184,0.66211,0.93763,-0.00111,0.00657,-0.34758,0.00000,0.00000,0.00000,0.00000,1,0,
07.10 14:10:16:799,23223,-0.09006,-0.03237,9.79574,2715785002763741317562368.00000,0.00000,-0.00000,-0.24877,0.34405,-0.68557,-0.38164,-40.68230,0.66162,0.93763,-0.00112,0.00657,-0.34758,0.00000,0.00000,0.00000,0.00000,1,0,
07.10 14:10:16:809,23224,-0.09757,-0.03769,9.80210,2715785002763741317562368.00000,0.00000,-0.00000,-0.24878,0.34403,-0.68458,-0.38342,-40.68082,0.66087,0.93763,-0.00113,0.00657,-0.34757,0.00000,0.00000,0.00000,0.00000,1,0,
07.10 14:10:16:819,23225,-0.08920,-0.03743,9.79428,2715785002763741317562368.00000,0.00000,-0.00000,-0.24927,0.34553,-0.68458,-0.38348,-40.68164,0.66062,0.93763,-0.00113,0.00657,-0.34758,0.00000,0.00000,0.00000,0.00000,1,0,
07.10 14:10:16:829,23226,-0.08438,-0.04019,9.79409,2715785002763741317562368.00000,0.00000,-0.00000,-0.24827,0.34457,-0.68606,-0.38166,-40.68180,0.65983,0.93763,-0.00112,0.00656,-0.34758,0.00000,0.00000,0.00000,0.00000,1,0,
07.10 14:10:16:839,23227,-0.08888,-0.04558,9.79857,2715785002763741317562368.00000,0.00000,-0.00000,-0.24680,0.34552,-0.68356,-0.38263,-40.68024,0.66045,0.93763,-0.00113,0.00656,-0.34757,0.00000,0.00000,0.00000,0.00000,1,0,
07.10 14:10:16:850,23228,-0.07653,-0.04708,9.80461,2715785002763741317562368.00000,0.00000,-0.00000,-0.24580,0.34354,-0.68455,-0.38301,-40.68061,0.66042,0.93763,-0.00113,0.00657,-0.34757,0.00000,0.00000,0.00000,0.00000,1,0,
07.10 14:10:16:860,23229,-0.08227,-0.03291,9.79545,2715785002763741317562368.00000,0.00000,-0.00000,-0.24877,0.34556,-0.68606,-0.38312,-40.67982,0.66069,0.93763,-0.00113,0.00657,-0.34756,0.00000,0.00000,0.00000,0.00000,1,0,
07.10 14:10:16:869,23230,-0.08845,-0.04743,9.79993,2715785002763741317562368.00000,0.00000,-0.00000,-0.24775,0.34566,-0.69054,-0.38331,-40.67958,0.65973,0.93763,-0.00114,0.00656,-0.34756,0.00000,0.00000,0.00000,0.00000,1,0,
07.10 14:10:16:879,23231,-0.09378,-0.04783,9.80115,2715785002763741317562368.00000,0.00000,-0.00000,-0.24779,0.34503,-0.68407,-0.38253,-40.67983,0.65922,0.93763,-0.00113,0.00655,-0.34756,0.00000,0.00000,0.00000,0.00000,1,0,
07.10 14:10:16:889,23232,-0.07913,-0.03854,9.79147,2715785002763741317562368.00000,0.00000,-0.00000,-0.24628,0.34609,-0.68704,-0.38351,-40.67989,0.65999,0.93763,-0.00114,0.00656,-0.34756,0.00000,0.00000,0.00000,0.00000,1,0,
07.10 14:10:16:899,23233,-0.08599,-0.04517,9.79803,2715785002763741317562368.00000,0.00000,-0.00000,-0.24828,0.34453,-0.68407,-0.38436,-40.67888,0.65960,0.93764,-0.00114,0.00656,-0.34756,0.00000,0.00000,0.00000,0.00000,1,0,
07.10 14:10:16:909,23234,-0.11027,-0.05300,9.80764,2715785002763741317562368.00000,0.00000,-0.00000,-0.24926,0.34508,-0.68707,-0.38416,-40.67859,0.65893,0.93764,-0.00114,0.00656,-0.34755,0.00000,0.00000,0.00000,0.00000,1,0,
07.10 14:10:16:918,23235,-0.06691,-0.04024,9.80320,2715785002763741317562368.00000,0.00000,-0.00000,-0.24629,0.34557,-0.68604,-0.38327,-40.67825,0.65887,0.93764,-0.00114,0.00655,-0.34755,0.00000,0.00000,0.00000,0.00000,1,0,
07.10 14:10:16:930,23236,-0.07440,-0.03309,9.79474,2715785002763741317562368.00000,0.00000,-0.00000,-0.24778,0.34406,-0.68556,-0.38559,-40.67806,0.65886,0.93764,-0.00116,0.00656,-0.34755,0.00000,0.00000,0.00000,0.00000,1,0,
07.10 14:10:16:939,23237,-0.07736,-0.03969,9.78560,2715785002763741317562368.00000,0.00000,-0.00000,-0.24727,0.34410,-0.68755,-0.38465,-40.67878,0.65888,0.93764,-0.00115,0.00656,-0.34755,0.00000,0.00000,0.00000,0.00000,1,0,
07.10 14:10:16:949,23238,-0.09003,-0.06446,9.79631,2715785002763741317562368.00000,0.00000,-0.00000,-0.24778,0.34506,-0.68556,-0.38459,-40.67881,0.65906,0.93764,-0.00115,0.00656,-0.34755,0.00000,0.00000,0.00000,0.00000,1,0,
07.10 14:10:16:959,23239,-0.09733,-0.05912,9.80535,2715785002763741317562368.00000,0.00000,-0.00000,-0.24976,0.34555,-0.68557,-0.38565,-40.67776,0.65879,0.93764,-0.00116,0.00656,-0.34755,0.00000,0.00000,0.00000,0.00000,1,0,
07.10 14:10:16:970,23240,-0.06156,-0.05310,9.79605,2715785002763741317562368.00000,0.00000,-0.00000,-0.24580,0.34653,-0.68405,-0.38580,-40.67798,0.65893,0.93764,-0.00116,0.00656,-0.34755,0.00000,0.00000,0.00000,0.00000,1,0,
07.10 14:10:16:979,23241,-0.08765,-0.05956,9.81825,2715785002763741317562368.00000,0.00000,-0.00000,-0.24728,0.34206,-0.68557,-0.38384,-40.67763,0.65881,0.93764,-0.00114,0.00655,-0.34755,0.00000,0.00000,0.00000,0.00000,1,0,
07.10 14:10:16:989,23242,-0.09047,-0.04110,9.79345,2715785002763741317562368.00000,0.00000,-0.00000,-0.24879,0.34600,-0.68308,-0.38377,-40.67759,0.65834,0.93764,-0.00114,0.00655,-0.34754,0.00000,0.00000,0.00000,0.00000,1,0,
07.10 14:10:17:000,23243,-0.08958,-0.05659,9.79710,2715785002763741317562368.00000,0.00000,-0.00000,-0.24531,0.34352,-0.68355,-0.38193,-40.67821,0.65869,0.93764,-0.00113,0.00655,-0.34755,0.00000,0.00000,0.00000,0.00000,1,0,
07.10 14:10:17:009,23244,-0.10355,-0.04245,9.78017,2715785002763741317562368.00000,0.00000,-0.00000,-0.24677,0.34462,-0.68854,-0.38230,-40.67766,0.65933,0.93764,-0.00113,0.00655,-0.34755,0.00000,0.00000,0.00000,0.00000,1,0,
07.10 14:10:17:019,23245,-0.09624,-0.04518,9.79059,2715785002763741317562368.00000,0.00000,-0.00000,-0.24729,0.34704,-0.68455,-0.38301,-40.67711,0.65847,0.93764,-0.00114,0.00655,-0.34754,0.00000,0.00000,0.00000,0.00000,1,0,
07.10 14:10:17:029,23246,-0.09184,-0.03301,9.79693,2715785002763741317562368.00000,0.00000,-0.00000,-0.24828,0.34453,-0.68407,-0.38182,-40.67645,0.65803,0.93764,-0.00113,0.00654,-0.34754,0.00000,0.00000,0.00000,0.00000,1,0,
07.10 14:10:17:038,23247,-0.09299,-0.04222,9.79350,2715785002763741317562368.00000,0.00000,-0.00000,-0.24678,0.34259,-0.68705,-0.38096,-40.67692,0.65788,0.93764,-0.00112,0.00654,-0.34754,0.00000,0.00000,0.00000,0.00000,1,0,
07.10 14:10:17:050,23248,-0.09623,-0.04329,9.80840,2715785002763741317562368.00000,0.00000,-0.00000,-0.24776,0.34463,-0.68905,-0.37982,-40.67535,0.65782,0.93765,-0.00111,0.00653,-0.34753,0.00000,0.00000,0.00000,0.00000,1,0,
07.10 14:10:17:059,23249,-0.08451,-0.04615,9.79245,2715785002763741317562368.00000,0.00000,-0.00000,-0.24777,0.34309,-0.68706,-0.37848,-40.67464,0.65712,0.93765,-0.00110,0.00652,-0.34752,0.00000,0.00000,0.00000,0.00000,1,0,
07.10 14:10:17:069,23250,-0.08932,-0.05228,9.79748,2715785002763741317562368.00000,0.00000,-0.00000,-0.24728,0.34407,-0.68606,-0.37862,-40.67348,0.65694,0.93765,-0.00111,0.00652,-0.34751,0.00000,0.00000,0.00000,0.00000,1,0,
07.10 14:10:17:079,23251,-0.09223,-0.04835,9.80110,2715785002763741317562368.00000,0.00000,-0.00000,-0.24630,0.34303,-0.68406,-0.37869,-40.67313,0.65671,0.93765,-0.00111,0.00652,-0.34751,0.00000,0.00000,0.00000,0.00000,1,0,
07.10 14:10:17:089,23252,-0.09272,-0.04227,9.80463,2715785002763741317562368.00000,0.00000,-0.00000,-0.24678,0.34709,-0.68704,-0.37811,-40.67324,0.65719,0.93765,-0.00110,0.00652,-0.34751,0.00000,0.00000,0.00000,0.00000,1,0,
07.10 14:10:17:098,23253,-0.09652,-0.05682,9.80306,2715785002763741317562368.00000,0.00000,-0.00000,-0.25027,0.34402,-0.68409,-0.37813,-40.67261,0.65798,0.93765,-0.00110,0.00653,-0.34750,0.00000,0.00000,0.00000,0.00000,1,0,
07.10 14:10:17:110,23254,-0.11815,-0.04179,9.81016,2715785002763741317562368.00000,0.00000,-0.00000,-0.24977,0.34354,-0.68508,-0.38093,-40.67231,0.65845,0.93766,-0.00112,0.00654,-0.34750,0.00000,0.00000,0.00000,0.00000,1,0,
07.10 14:10:17:119,23255,-0.09967,-0.05293,9.79533,2715785002763741317562368.00000,0.00000,-0.00000,-0.24878,0.34704,-0.68506,-0.37821,-40.67268,0.65855,0.93765,-0.00110,0.00654,-0.34751,0.00000,0.00000,0.00000,0.00000,1,0,
07.10 14:10:17:130,23256,-0.09348,-0.03513,9.80816,2715785002763741317562368.00000,0.00000,-0.00000,-0.24680,0.34602,-0.68356,-0.37807,-40.67286,0.65757,0.93765,-0.00110,0.00653,-0.34751,0.00000,0.00000,0.00000,0.00000,1,0,
07.10 14:10:17:139,23257,-0.09255,-0.01957,9.80232,2715785002763741317562368.00000,0.00000,-0.00000,-0.24778,0.34604,-0.68456,-0.37706,-40.67207,0.65828,0.93766,-0.00109,0.00653,-0.34750,0.00000,0.00000,0.00000,0.00000,1,0,
07.10 14:10:17:149,23258,-0.07949,-0.04906,9.78754,2715785002763741317562368.00000,0.00000,-0.00000,-0.24927,0.34705,-0.68557,-0.37692,-40.67107,0.65769,0.93766,-0.00109,0.00652,-0.34749,0.00000,0.00000,0.00000,0.00000,1,0,
07.10 14:10:17:159,23259,-0.09998,-0.02405,9.78994,2715785002763741317562368.00000,0.00000,-0.00000,-0.24875,0.34565,-0.69054,-0.37740,-40.67030,0.65720,0.93766,-0.00110,0.00652,-0.34749,0.00000,0.00000,0.00000,0.00000,1,0,
07.10 14:10:17:169,23260,-0.10014,-0.03787,9.80692,2715785002763741317562368.00000,0.00000,-0.00000,-0.24777,0.34558,-0.68655,-0.37829,-40.66933,0.65675,0.93766,-0.00110,0.00652,-0.34748,0.00000,0.00000,0.00000,0.00000,1,0,
07.10 14:10:17:178,23261,-0.08885,-0.04394,9.79409,2715785002763741317562368.00000,0.00000,-0.00000,-0.24829,0.34250,-0.68259,-0.37856,-40.66942,0.65595,0.93766,-0.00111,0.00652,-0.34748,0.00000,0.00000,0.00000,0.00000,1,0,
07.10 14:10:17:189,23262,-0.07882,-0.03071,9.79819,2715785002763741317562368.00000,0.00000,-0.00000,-0.24778,0.34407,-0.68606,-0.37755,-40.66941,0.65546,0.93766,-0.00110,0.00651,-0.34748,0.00000,0.00000,0.00000,0.00000,1,0,
07.10 14:10:17:199,23263,-0.08832,-0.04677,9.78611,2715785002763741317562368.00000,0.00000,-0.00000,-0.24778,0.34356,-0.68557,-0.37704,-40.66908,0.65505,0.93767,-0.00110,0.00650,-0.34748,0.00000,0.00000,0.00000,0.00000,1,0,
07.10 14:10:17:210,23264,-0.10190,-0.05087,9.79345,2715785002763741317562368.00000,0.00000,-0.00000,-0.24530,0.34557,-0.68604,-0.37629,-40.66999,0.65433,0.93766,-0.00109,0.00650,-0.34748,0.00000,0.00000,0.00000,0.00000,1,0,
07.10 14:10:17:219,23265,-0.09752,-0.04734,9.80744,2715785002763741317562368.00000,0.00000,-0.00000,-0.24778,0.34654,-0.68506,-0.37895,-40.68103,0.65903,0.93763,-0.00110,0.00654,-0.34757,0.00000,0.00000,0.00000,0.00000,1,0,
07.10 14:10:17:229,23266,-0.08544,-0.04077,9.79621,2715785002763741317562368.00000,0.00000,-0.00000,-0.24877,0.34356,-0.68607,-0.37884,-40.68073,0.65943,0.93763,-0.00110,0.00654,-0.34757,0.00000,0.00000,0.00000,0.00000,1,0,
07.10 14:10:17:239,23267,-0.08470,-0.03615,9.80458,2715785002763741317562368.00000,0.00000,-0.00000,-0.24729,0.34302,-0.68357,-0.37831,-40.68042,0.66031,0.93763,-0.00109,0.00655,-0.34757,0.00000,0.00000,0.00000,0.00000,1,0,
07.10 14:10:17:249,23268,-0.10263,-0.05879,9.79433,2715785002763741317562368.00000,0.00000,-0.00000,-0.24778,0.34653,-0.68456,-0.37741,-40.67974,0.66155,0.93763,-0.00108,0.00656,-0.34756,0.00000,0.00000,0.00000,0.00000,1,0,
07.10 14:10:17:259,23269,-0.09309,-0.06582,9.79545,2715785002763741317562368.00000,0.00000,-0.00000,-0.24777,0.34508,-0.68656,-0.37718,-40.67913,0.66061,0.93764,-0.00108,0.00655,-0.34756,0.00000,0.00000,0.00000,0.00000,1,0,
07.10 14:10:17:270,23270,-0.08755,-0.04195,9.79965,2715785002763741317562368.00000,0.00000,-0.00000,-0.24828,0.34603,-0.68457,-0.37882,-40.67853,0.65919,0.93764,-0.00110,0.00654,-0.34755,0.00000,0.00000,0.00000,0.00000,1,0,
07.10 14:10:17:279,23271,-0.08720,-0.04192,9.80742,2715785002763741317562368.00000,0.00000,-0.00000,-0.24828,0.34504,-0.68507,-0.37939,-40.67828,0.65823,0.93764,-0.00111,0.00654,-0.34755,0.00000,0.00000,0.00000,0.00000,1,0,
07.10 14:10:17:291,23272,-0.08861,-0.03652,9.80396,2715785002763741317562368.00000,0.00000,-0.00000,-0.24827,0.34457,-0.68606,-0.37894,-40.67862,0.65781,0.93764,-0.00111,0.00653,-0.34755,0.00000,0.00000,0.00000,0.00000,1,0,
07.10 14:10:17:299,23273,-0.08323,-0.04807,9.80139,2715785002763741317562368.00000,0.00000,-0.00000,-0.24678,0.34559,-0.68704,-0.37848,-40.67849,0.65784,0.93764,-0.00110,0.00653,-0.34755,0.00000,0.00000,0.00000,0.00000,1,0,
07.10 14:10:17:308,23274,-0.10258,-0.04443,9.79671,2715785002763741317562368.00000,0.00000,-0.00000,-0.24777,0.34558,-0.68655,-0.37810,-40.67829,0.65886,0.93764,-0.00110,0.00654,-0.34755,0.00000,0.00000,0.00000,0.00000,1,0,
07.10 14:10:17:319,23275,-0.10630,-0.04148,9.79934,2715785002763741317562368.00000,0.00000,-0.00000,-0.24529,0.34659,-0.68703,-0.37987,-40.67816,0.65871,0.93764,-0.00111,0.00654,-0.34755,0.00000,0.00000,0.00000,0.00000,1,0,
07.10 14:10:17:329,23276,-0.10251,-0.06609,9.80225,2715785002763741317562368.00000,0.00000,-0.00000,-0.24878,0.34304,-0.68458,-0.37802,-40.67913,0.65865,0.93764,-0.00110,0.00654,-0.34756,0.00000,0.00000,0.00000,0.00000,1,0,
07.10 14:10:17:339,23277,-0.10007,-0.02808,9.79595,2715785002763741317562368.00000,0.00000,-0.00000,-0.24728,0.34556,-0.68555,-0.37805,-40.67893,0.65834,0.93764,-0.00110,0.00653,-0.34756,0.00000,0.00000,0.00000,0.00000,1,0,
07.10 14:10:17:349,23278,-0.10588,-0.05598,9.79898,2715785002763741317562368.00000,0.00000,-0.00000,-0.24778,0.34405,-0.68507,-0.37924,-40.67800,0.65800,0.93764,-0.00111,0.00653,-0.34755,0.00000,0.00000,0.00000,0.00000,1,0,
07.10 14:10:17:360,23279,-0.10678,-0.04612,9.80754,2715785002763741317562368.00000,0.00000,-0.00000,-0.24679,0.34556,-0.68555,-0.37832,-40.67774,0.65710,0.93764,-0.00110,0.00652,-0.34755,0.00000,0.00000,0.00000,0.00000,1,0,
07.10 14:10:17:370,23280,-0.08306,-0.04444,9.79665,2715785002763741317562368.00000,0.00000,-0.00000,-0.24777,0.34609,-0.68705,-0.37738,-40.67756,0.65603,0.93764,-0.00110,0.00651,-0.34755,0.00000,0.00000,0.00000,0.00000,1,0,
07.10 14:10:17:379,23281,-0.10967,-0.05371,9.79495,2715785002763741317562368.00000,0.00000,-0.00000,-0.24778,0.34555,-0.68506,-0.38009,-40.67660,0.65616,0.93764,-0.00112,0.00652,-0.34754,0.00000,0.00000,0.00000,0.00000,1,0,
07.10 14:10:17:389,23282,-0.10659,-0.05604,9.80217,2715785002763741317562368.00000,0.00000,-0.00000,-0.24679,0.34403,-0.68406,-0.37933,-40.67546,0.65558,0.93765,-0.00112,0.00651,-0.34753,0.00000,0.00000,0.00000,0.00000,1,0,
07.10 14:10:17:400,23283,-0.10034,-0.05296,9.78534,2715785002763741317562368.00000,0.00000,-0.00000,-0.24729,0.34454,-0.68456,-0.37802,-40.67573,0.65515,0.93765,-0.00111,0.00651,-0.34753,0.00000,0.00000,0.00000,0.00000,1,0,
07.10 14:10:17:409,23284,-0.09944,-0.05104,9.79634,2715785002763741317562368.00000,0.00000,-0.00000,-0.24778,0.34356,-0.68557,-0.37810,-40.67410,0.65347,0.93765,-0.00111,0.00649,-0.34752,0.00000,0.00000,0.00000,0.00000,1,0,
07.10 14:10:17:419,23285,-0.09912,-0.02926,9.78746,2715785002763741317562368.00000,0.00000,-0.00000,-0.24927,0.34403,-0.68458,-0.37937,-40.67405,0.65371,0.93765,-0.00112,0.00650,-0.34752,0.00000,0.00000,0.00000,0.00000,1,0,
07.10 14:10:17:430,23286,-0.09797,-0.05621,9.79173,2715785002763741317562368.00000,0.00000,-0.00000,-0.24827,0.34158,-0.68657,-0.38010,-40.67371,0.65328,0.93765,-0.00113,0.00650,-0.34751,0.00000,0.00000,0.00000,0.00000,1,0,
07.10 14:10:17:439,23287,-0.10071,-0.05179,9.79550,2715785002763741317562368.00000,0.00000,-0.00000,-0.24527,0.34216,-0.69003,-0.37967,-40.67339,0.65286,0.93765,-0.00113,0.00649,-0.34751,0.00000,0.00000,0.00000,0.00000,1,0,
07.10 14:10:17:450,23288,-0.10503,-0.03403,9.79154,2715785002763741317562368.00000,0.00000,-0.00000,-0.24579,0.34558,-0.68654,-0.37842,-40.67313,0.65282,0.93765,-0.00112,0.00649,-0.34751,0.00000,0.00000,0.00000,0.00000,1,0,
07.10 14:10:17:459,23289,-0.10035,-0.02684,9.79328,2715785002763741317562368.00000,0.00000,-0.00000,-0.24729,0.34704,-0.68455,-0.37683,-40.67333,0.65225,0.93765,-0.00111,0.00648,-0.34751,0.00000,0.00000,0.00000,0.00000,1,0,
07.10 14:10:17:469,23290,-0.08643,-0.04840,9.78770,2715785002763741317562368.00000,0.00000,-0.00000,-0.24680,0.34501,-0.68306,-0.37785,-40.67232,0.65148,0.93766,-0.00112,0.00648,-0.34750,0.00000,0.00000,0.00000,0.00000,1,0,
07.10 14:10:17:479,23291,-0.09032,-0.04052,9.80275,2715785002763741317562368.00000,0.00000,-0.00000,-0.24878,0.34353,-0.68458,-0.37774,-40.67186,0.65132,0.93766,-0.00112,0.00648,-0.34750,0.00000,0.00000,0.00000,0.00000,1,0,
07.10 14:10:17:489,23292,-0.09248,-0.04855,9.80771,2715785002763741317562368.00000,0.00000,-0.00000,-0.24431,0.34555,-0.68454,-0.37868,-40.67079,0.65152,0.93766,-0.00112,0.00648,-0.34749,0.00000,0.00000,0.00000,0.00000,1,0,
07.10 14:10:17:499,23293,-0.08907,-0.03159,9.79109,2715785002763741317562368.00000,0.00000,-0.00000,-0.24679,0.34154,-0.68457,-0.37930,-40.67126,0.65076,0.93766,-0.00113,0.00648,-0.34749,0.00000,0.00000,0.00000,0.00000,1,0,
07.10 14:10:17:509,23294,-0.08657,-0.03390,9.80074,2715785002763741317562368.00000,0.00000,-0.00000,-0.24778,0.34405,-0.68507,-0.37799,-40.67198,0.65091,0.93766,-0.00112,0.00647,-0.34750,0.00000,0.00000,0.00000,0.00000,1,0,
07.10 14:10:17:518,23295,-0.09302,-0.05277,9.79173,2715785002763741317562368.00000,0.00000,-0.00000,-0.24828,0.34705,-0.68556,-0.37970,-40.67098,0.65076,0.93766,-0.00113,0.00648,-0.34749,0.00000,0.00000,0.00000,0.00000,1,0,
07.10 14:10:17:530,23296,-0.08835,-0.03505,9.80370,2715785002763741317562368.00000,0.00000,-0.00000,-0.24777,0.34308,-0.68656,-0.38091,-40.67035,0.65070,0.93766,-0.00114,0.00648,-0.34749,0.00000,0.00000,0.00000,0.00000,1,0,
07.10 14:10:17:540,23297,-0.08904,-0.04398,9.79693,2715785002763741317562368.00000,0.00000,-0.00000,-0.24826,0.34410,-0.68756,-0.37989,-40.66934,0.65134,0.93767,-0.00113,0.00648,-0.34748,0.00000,0.00000,0.00000,0.00000,1,0,
07.10 14:10:17:549,23298,-0.10703,-0.03101,9.81035,2715785002763741317562368.00000,0.00000,-0.00000,-0.24729,0.34554,-0.68456,-0.37993,-40.66947,0.65082,0.93766,-0.00114,0.00648,-0.34748,0.00000,0.00000,0.00000,0.00000,1,0,
07.10 14:10:17:559,23299,-0.09061,-0.04266,9.79705,2715785002763741317562368.00000,0.00000,-0.00000,-0.24680,0.34301,-0.68307,-0.38054,-40.66982,0.65091,0.93766,-0.00114,0.00648,-0.34748,0.00000,0.00000,0.00000,0.00000,1,0,
07.10 14:10:17:569,23300,-0.08455,-0.04559,9.79443,2715785002763741317562368.00000,0.00000,-0.00000,-0.24829,0.34598,-0.68208,-0.37873,-40.67013,0.65102,0.93766,-0.00112,0.00648,-0.34748,0.00000,0.00000,0.00000,0.00000,1,0,
07.10 14:10:17:579,23301,-0.08934,-0.05351,9.79056,2715785002763741317562368.00000,0.00000,-0.00000,-0.24828,0.34404,-0.68457,-0.37965,-40.66926,0.65002,0.93767,-0.00114,0.00647,-0.34748,0.00000,0.00000,0.00000,0.00000,1,0,
07.10 14:10:17:589,23302,-0.09619,-0.02663,9.79881,2715785002763741317562368.00000,0.00000,-0.00000,-0.24827,0.34307,-0.68607,-0.38001,-40.66825,0.64974,0.93767,-0.00114,0.00647,-0.34747,0.00000,0.00000,0.00000,0.00000,1,0,
07.10 14:10:17:600,23303,-0.07705,-0.04402,9.80358,2715785002763741317562368.00000,0.00000,-0.00000,-0.24581,0.34450,-0.68256,-0.37768,-40.66833,0.64995,0.93767,-0.00112,0.00646,-0.34747,0.00000,0.00000,0.00000,0.00000,1,0,
07.10 14:10:17:610,23304,-0.10752,-0.06035,9.81300,2715785002763741317562368.00000,0.00000,-0.00000,-0.24878,0.34302,-0.68358,-0.37847,-40.66757,0.65040,0.93767,-0.00112,0.00647,-0.34746,0.00000,0.00000,0.00000,0.00000,1,0,
07.10 14:10:17:620,23305,-0.09665,-0.03018,9.77969,2715785002763741317562368.00000,0.00000,-0.00000,-0.24729,0.34502,-0.68357,-0.37857,-40.66742,0.64961,0.93767,-0.00113,0.00646,-0.34746,0.00000,0.00000,0.00000,0.00000,1,0,
07.10 14:10:17:629,23306,-0.10657,-0.02553,9.79128,2715785002763741317562368.00000,0.00000,-0.00000,-0.24530,0.34357,-0.68555,-0.37852,-40.66742,0.64889,0.93767,-0.00113,0.00646,-0.34746,0.00000,0.00000,0.00000,0.00000,1,0,
07.10 14:10:17:638,23307,-0.08830,-0.04363,9.80058,2715785002763741317562368.00000,0.00000,-0.00000,-0.24928,0.34602,-0.68408,-0.37967,-40.66752,0.64905,0.93767,-0.00114,0.00646,-0.34746,0.00000,0.00000,0.00000,0.00000,1,0,
07.10 14:10:17:649,23308,-0.09486,-0.04045,9.81250,2715785002763741317562368.00000,0.00000,-0.00000,-0.24879,0.34399,-0.68259,-0.37971,-40.66830,0.64849,0.93767,-0.00114,0.00646,-0.34747,0.00000,0.00000,0.00000,0.00000,1,0,
07.10 14:10:17:658,23309,-0.09182,-0.05679,9.80363,2715785002763741317562368.00000,0.00000,-0.00000,-0.24729,0.34454,-0.68456,-0.37860,-40.66801,0.64818,0.93767,-0.00113,0.00645,-0.34747,0.00000,0.00000,0.00000,0.00000,1,0,
07.10 14:10:17:669,23310,-0.09068,-0.03715,9.79373,2715785002763741317562368.00000,0.00000,-0.00000,-0.24630,0.34402,-0.68356,-0.37822,-40.66817,0.64836,0.93767,-0.00113,0.00645,-0.34747,0.00000,0.00000,0.00000,0.00000,1,0,
07.10 14:10:17:679,23311,-0.09191,-0.03701,9.78482,2715785002763741317562368.00000,0.00000,-0.00000,-0.24779,0.34402,-0.68357,-0.37773,-40.66879,0.64829,0.93767,-0.00112,0.00645,-0.34747,0.00000,0.00000,0.00000,0.00000,1,0,
07.10 14:10:17:690,23312,-0.09828,-0.03508,9.79786,2715785002763741317562368.00000,0.00000,-0.00000,-0.24680,0.34651,-0.68306,-0.37519,-40.66883,0.64732,0.93767,-0.00111,0.00643,-0.34747,0.00000,0.00000,0.00000,0.00000,1,0,
07.10 14:10:17:699,23313,-0.09351,-0.03268,9.81126,2715785002763741317562368.00000,0.00000,-0.00000,-0.24579,0.34506,-0.68554,-0.37498,-40.66906,0.64725,0.93767,-0.00111,0.00643,-0.34748,0.00000,0.00000,0.00000,0.00000,1,0,
07.10 14:10:17:709,23314,-0.07227,-0.06550,9.79013,2715785002763741317562368.00000,0.00000,-0.00000,-0.24878,0.34304,-0.68458,-0.37474,-40.66819,0.64671,0.93767,-0.00111,0.00643,-0.34747,0.00000,0.00000,0.00000,0.00000,1,0,
07.10 14:10:17:719,23315,-0.10959,-0.05368,9.80515,2715785002763741317562368.00000,0.00000,-0.00000,-0.24779,0.34450,-0.68258,-0.37499,-40.66817,0.64724,0.93767,-0.00111,0.00643,-0.34747,0.00000,0.00000,0.00000,0.00000,1,0,
07.10 14:10:17:728,23316,-0.09767,-0.05361,9.77552,2715785002763741317562368.00000,0.00000,-0.00000,-0.24779,0.34351,-0.68308,-0.37549,-40.66792,0.64658,0.93767,-0.00111,0.00643,-0.34747,0.00000,0.00000,0.00000,0.00000,1,0,
07.10 14:10:17:739,23317,-0.09856,-0.03679,9.79013,2715785002763741317562368.00000,0.00000,-0.00000,-0.24828,0.34305,-0.68507,-0.37728,-40.66748,0.64593,0.93767,-0.00113,0.00643,-0.34746,0.00000,0.00000,0.00000,0.00000,1,0,
07.10 14:10:17:748,23318,-0.09719,-0.05896,9.80406,2715785002763741317562368.00000,0.00000,-0.00000,-0.24927,0.34252,-0.68409,-0.37638,-40.66796,0.64439,0.93767,-0.00113,0.00641,-0.34747,0.00000,0.00000,0.00000,0.00000,1,0,
07.10 14:10:17:760,23319,-0.09157,-0.04559,9.80573,2715785002763741317562368.00000,0.00000,-0.00000,-0.24927,0.34302,-0.68409,-0.37661,-40.66742,0.64398,0.93767,-0.00113,0.00641,-0.34746,0.00000,0.00000,0.00000,0.00000,1,0,
07.10 14:10:17:770,23320,-0.09102,-0.04840,9.80189,2715785002763741317562368.00000,0.00000,-0.00000,-0.24879,0.34698,-0.68208,-0.37562,-40.66697,0.64413,0.93767,-0.00112,0.00641,-0.34746,0.00000,0.00000,0.00000,0.00000,1,0,
07.10 14:10:17:780,23321,-0.08510,-0.05502,9.78835,2715785002763741317562368.00000,0.00000,-0.00000,-0.24730,0.34449,-0.68207,-0.37613,-40.66666,0.64454,0.93767,-0.00112,0.00641,-0.34746,0.00000,0.00000,0.00000,0.00000,1,0,
07.10 14:10:17:790,23322,-0.09494,-0.05692,9.80511,2715785002763741317562368.00000,0.00000,-0.00000,-0.24679,0.34555,-0.68505,-0.37633,-40.66619,0.64410,0.93767,-0.00113,0.00641,-0.34745,0.00000,0.00000,0.00000,0.00000,1,0,
07.10 14:10:17:799,23323,-0.08716,-0.03948,9.80742,2715785002763741317562368.00000,0.00000,-0.00000,-0.24630,0.34602,-0.68355,-0.37714,-40.66561,0.64423,0.93768,-0.00113,0.00642,-0.34745,0.00000,0.00000,0.00000,0.00000,1,0,
07.10 14:10:17:809,23324,-0.09006,-0.04445,9.79912,2715785002763741317562368.00000,0.00000,-0.00000,-0.24829,0.34402,-0.68358,-0.37638,-40.66470,0.64339,0.93768,-0.00113,0.00641,-0.34744,0.00000,0.00000,0.00000,0.00000,1,0,
07.10 14:10:17:819,23325,-0.08248,-0.02849,9.79867,2715785002763741317562368.00000,0.00000,-0.00000,-0.24828,0.34453,-0.68407,-0.37662,-40.66462,0.64348,0.93768,-0.00113,0.00641,-0.34744,0.00000,0.00000,0.00000,0.00000,1,0,
07.10 14:10:17:829,23326,-0.09054,-0.03805,9.80237,2715785002763741317562368.00000,0.00000,-0.00000,-0.24927,0.34454,-0.68508,-0.37528,-40.66508,0.64355,0.93768,-0.00112,0.00640,-0.34744,0.00000,0.00000,0.00000,0.00000,1,0,
07.10 14:10:17:841,23327,-0.10206,-0.04349,9.79638,2715785002763741317562368.00000,0.00000,-0.00000,-0.24875,0.34415,-0.69005,-0.37509,-40.66422,0.64492,0.93768,-0.00111,0.00641,-0.34744,0.00000,0.00000,0.00000,0.00000,1,0,
07.10 14:10:17:850,23328,-0.08364,-0.04054,9.80320,2715785002763741317562368.00000,0.00000,-0.00000,-0.24729,0.34452,-0.68357,-0.37640,-40.66298,0.64498,0.93768,-0.00112,0.00642,-0.34743,0.00000,0.00000,0.00000,0.00000,1,0,
07.10 14:10:17:860,23329,-0.10294,-0.05564,9.78510,2715785002763741317562368.00000,0.00000,-0.00000,-0.24778,0.34454,-0.68457,-0.37676,-40.66278,0.64495,0.93769,-0.00113,0.00642,-0.34742,0.00000,0.00000,0.00000,0.00000,1,0,
07.10 14:10:17:869,23330,-0.08782,-0.05146,9.80082,2715785002763741317562368.00000,0.00000,-0.00000,-0.24381,0.34505,-0.68453,-0.37581,-40.66296,0.64532,0.93768,-0.00112,0.00642,-0.34743,0.00000,0.00000,0.00000,0.00000,1,0,
07.10 14:10:17:879,23331,-0.09094,-0.05002,9.78151,2715785002763741317562368.00000,0.00000,-0.00000,-0.24778,0.34306,-0.68557,-0.37566,-40.66175,0.64463,0.93769,-0.00112,0.00641,-0.34742,0.00000,0.00000,0.00000,0.00000,1,0,
07.10 14:10:17:889,23332,-0.09454,-0.05431,9.79054,2715785002763741317562368.00000,0.00000,-0.00000,-0.24977,0.34553,-0.68458,-0.37592,-40.66143,0.64383,0.93769,-0.00112,0.00641,-0.34741,0.00000,0.00000,0.00000,0.00000,1,0,
07.10 14:10:17:899,23333,-0.08972,-0.05148,9.79064,2715785002763741317562368.00000,0.00000,-0.00000,-0.24878,0.34500,-0.68308,-0.37565,-40.66087,0.64196,0.93769,-0.00113,0.00639,-0.34741,0.00000,0.00000,0.00000,0.00000,1,0,
07.10 14:10:17:909,23334,-0.10654,-0.05727,9.79722,2715785002763741317562368.00000,0.00000,-0.00000,-0.24728,0.34307,-0.68606,-0.37568,-40.66169,0.64226,0.93769,-0.00113,0.00639,-0.34742,0.00000,0.00000,0.00000,0.00000,1,0,
07.10 14:10:17:920,23335,-0.09620,-0.03802,9.78305,2715785002763741317562368.00000,0.00000,-0.00000,-0.24680,0.34803,-0.68405,-0.37376,-40.66212,0.64244,0.93769,-0.00111,0.00639,-0.34742,0.00000,0.00000,0.00000,0.00000,1,0,
07.10 14:10:17:929,23336,-0.09329,-0.03092,9.80349,2715785002763741317562368.00000,0.00000,-0.00000,-0.24679,0.34603,-0.68406,-0.37347,-40.66226,0.64229,0.93769,-0.00111,0.00639,-0.34742,0.00000,0.00000,0.00000,0.00000,1,0,
07.10 14:10:17:940,23337,-0.09295,-0.05018,9.80723,2715785002763741317562368.00000,0.00000,-0.00000,-0.24480,0.34356,-0.68504,-0.37248,-40.66140,0.64156,0.93769,-0.00110,0.00638,-0.34741,0.00000,0.00000,0.00000,0.00000,1,0,
07.10 14:10:17:949,23338,-0.08815,-0.05056,9.80647,2715785002763741317562368.00000,0.00000,-0.00000,-0.24779,0.34553,-0.68407,-0.37302,-40.66107,0.64135,0.93769,-0.00111,0.00638,-0.34741,0.00000,0.00000,0.00000,0.00000,1,0,
07.10 14:10:17:958,23339,-0.09128,-0.05185,9.80358,2715785002763741317562368.00000,0.00000,-0.00000,-0.24828,0.34204,-0.68458,-0.37274,-40.66021,0.64108,0.93769,-0.00111,0.00638,-0.34740,0.00000,0.00000,0.00000,0.00000,1,0,
07.10 14:10:17:968,23340,-0.09622,-0.03500,9.79989,2715785002763741317562368.00000,0.00000,-0.00000,-0.24729,0.34554,-0.68456,-0.37200,-40.65918,0.64070,0.93770,-0.00110,0.00637,-0.34740,0.00000,0.00000,0.00000,0.00000,1,0,
07.10 14:10:17:979,23341,-0.09871,-0.03860,9.78470,2715785002763741317562368.00000,0.00000,-0.00000,-0.24928,0.34500,-0.68308,-0.37190,-40.65893,0.64151,0.93770,-0.00110,0.00638,-0.34739,0.00000,0.00000,0.00000,0.00000,1,0,
07.10 14:10:17:989,23342,-0.08512,-0.04298,9.79683,2715785002763741317562368.00000,0.00000,-0.00000,-0.24778,0.34454,-0.68457,-0.37010,-40.65943,0.64145,0.93770,-0.00108,0.00637,-0.34740,0.00000,0.00000,0.00000,0.00000,1,0,
07.10 14:10:18:000,23343,-0.08735,-0.05559,9.80096,2715785002763741317562368.00000,0.00000,-0.00000,-0.24728,0.34406,-0.68556,-0.37046,-40.65884,0.64231,0.93770,-0.00108,0.00638,-0.34739,0.00000,0.00000,0.00000,0.00000,1,0,
07.10 14:10:18:010,23344,-0.10685,-0.04402,9.79488,2715785002763741317562368.00000,0.00000,-0.00000,-0.24779,0.34553,-0.68407,-0.37239,-40.65816,0.64184,0.93770,-0.00110,0.00638,-0.34739,0.00000,0.00000,0.00000,0.00000,1,0,
07.10 14:10:18:019,23345,-0.09166,-0.04492,9.77929,2715785002763741317562368.00000,0.00000,-0.00000,-0.24878,0.34402,-0.68408,-0.37124,-40.65732,0.64149,0.93770,-0.00109,0.00637,-0.34738,0.00000,0.00000,0.00000,0.00000,1,0,
07.10 14:10:18:029,23346,-0.07836,-0.04608,9.80983,2715785002763741317562368.00000,0.00000,-0.00000,-0.24729,0.34603,-0.68406,-0.37051,-40.65719,0.64182,0.93770,-0.00109,0.00638,-0.34738,0.00000,0.00000,0.00000,0.00000,1,0,
07.10 14:10:18:039,23347,-0.09206,-0.05777,9.79898,2715785002763741317562368.00000,0.00000,-0.00000,-0.24676,0.34566,-0.69053,-0.36904,-40.65805,0.64152,0.93770,-0.00107,0.00637,-0.34739,0.00000,0.00000,0.00000,0.00000,1,0,
07.10 14:10:18:048,23348,-0.08587,-0.04523,9.79540,2715785002763741317562368.00000,0.00000,-0.00000,-0.24727,0.34512,-0.68854,-0.36919,-40.65791,0.64061,0.93770,-0.00108,0.00636,-0.34739,0.00000,0.00000,0.00000,0.00000,1,0,
07.10 14:10:18:059,23349,-0.10201,-0.02650,9.80942,2715785002763741317562368.00000,0.00000,-0.00000,-0.24927,0.34454,-0.68508,-0.37021,-40.65753,0.64115,0.93770,-0.00109,0.00637,-0.34738,0.00000,0.00000,0.00000,0.00000,1,0,
07.10 14:10:18:068,23350,-0.11412,-0.04291,9.79221,2715785002763741317562368.00000,0.00000,-0.00000,-0.24779,0.34303,-0.68407,-0.37032,-40.65678,0.64077,0.93770,-0.00109,0.00637,-0.34738,0.00000,0.00000,0.00000,0.00000,1,0,
07.10 14:10:18:079,23351,-0.08341,-0.04139,9.80461,2715785002763741317562368.00000,0.00000,-0.00000,-0.24729,0.34652,-0.68356,-0.36860,-40.65666,0.64044,0.93770,-0.00107,0.00636,-0.34738,0.00000,0.00000,0.00000,0.00000,1,0,
07.10 14:10:18:090,23352,-0.10626,-0.03836,9.79512,2715785002763741317562368.00000,0.00000,-0.00000,-0.24778,0.34555,-0.68506,-0.36772,-40.65657,0.63981,0.93770,-0.00107,0.00635,-0.34737,0.00000,0.00000,0.00000,0.00000,1,0,
07.10 14:10:18:099,23353,-0.08221,-0.03683,9.80277,2715785002763741317562368.00000,0.00000,-0.00000,-0.24829,0.34399,-0.68208,-0.36836,-40.65620,0.63892,0.93771,-0.00108,0.00635,-0.34737,0.00000,0.00000,0.00000,0.00000,1,0,
07.10 14:10:18:110,23354,-0.09254,-0.06313,9.80051,2715785002763741317562368.00000,0.00000,-0.00000,-0.24530,0.34555,-0.68504,-0.36912,-40.65562,0.63951,0.93771,-0.00108,0.00635,-0.34737,0.00000,0.00000,0.00000,0.00000,1,0,
07.10 14:10:18:118,23355,-0.10259,-0.05821,9.79798,2715785002763741317562368.00000,0.00000,-0.00000,-0.24879,0.34448,-0.68209,-0.36993,-40.65405,0.63989,0.93771,-0.00109,0.00636,-0.34735,0.00000,0.00000,0.00000,0.00000,1,0,
07.10 14:10:18:128,23356,-0.10813,-0.05854,9.80413,2715785002763741317562368.00000,0.00000,-0.00000,-0.24779,0.34353,-0.68407,-0.36957,-40.65405,0.63958,0.93771,-0.00109,0.00635,-0.34735,0.00000,0.00000,0.00000,0.00000,1,0,
07.10 14:10:18:139,23357,-0.09449,-0.03577,9.78146,2715785002763741317562368.00000,0.00000,-0.00000,-0.24679,0.34603,-0.68406,-0.36752,-40.65455,0.63912,0.93771,-0.00107,0.00634,-0.34736,0.00000,0.00000,0.00000,0.00000,1,0,
07.10 14:10:18:149,23358,-0.07640,-0.04673,9.80976,2715785002763741317562368.00000,0.00000,-0.00000,-0.24630,0.34401,-0.68306,-0.36753,-40.65511,0.63914,0.93771,-0.00107,0.00634,-0.34736,0.00000,0.00000,0.00000,0.00000,1,0,
07.10 14:10:18:160,23359,-0.08774,-0.04539,9.79397,2715785002763741317562368.00000,0.00000,-0.00000,-0.24827,0.34556,-0.68606,-0.36874,-40.65441,0.63934,0.93771,-0.00108,0.00635,-0.34736,0.00000,0.00000,0.00000,0.00000,1,0,
07.10 14:10:18:170,23360,-0.07926,-0.04548,9.78959,2715785002763741317562368.00000,0.00000,-0.00000,-0.24730,0.34351,-0.68307,-0.36768,-40.65474,0.63863,0.93771,-0.00107,0.00634,-0.34736,0.00000,0.00000,0.00000,0.00000,1,0,
07.10 14:10:18:180,23361,-0.08500,-0.04077,9.79152,2715785002763741317562368.00000,0.00000,-0.00000,-0.24778,0.34555,-0.68506,-0.36690,-40.65385,0.63830,0.93771,-0.00107,0.00634,-0.34735,0.00000,0.00000,0.00000,0.00000,1,0,
07.10 14:10:18:189,23362,-0.08124,-0.04216,9.79843,2715785002763741317562368.00000,0.00000,-0.00000,-0.24630,0.34352,-0.68356,-0.36849,-40.65335,0.63829,0.93771,-0.00108,0.00634,-0.34735,0.00000,0.00000,0.00000,0.00000,1,0,
07.10 14:10:18:198,23363,-0.08316,-0.04446,9.79061,2715785002763741317562368.00000,0.00000,-0.00000,-0.24829,0.34601,-0.68357,-0.36675,-40.65318,0.63812,0.93771,-0.00107,0.00633,-0.34735,0.00000,0.00000,0.00000,0.00000,1,0,
07.10 14:10:18:208,23364,-0.08998,-0.05582,9.81312,2715785002763741317562368.00000,0.00000,-0.00000,-0.24532,0.34699,-0.68205,-0.36672,-40.65304,0.63815,0.93772,-0.00107,0.00633,-0.34735,0.00000,0.00000,0.00000,0.00000,1,0,
07.10 14:10:18:219,23365,-0.09646,-0.04060,9.79719,2715785002763741317562368.00000,0.00000,-0.00000,-0.24630,0.34502,-0.68356,-0.36781,-40.65211,0.64004,0.93772,-0.00107,0.00635,-0.34734,0.00000,0.00000,0.00000,0.00000,1,0,
07.10 14:10:18:229,23366,-0.07799,-0.06035,9.80291,2715785002763741317562368.00000,0.00000,-0.00000,-0.25027,0.34503,-0.68458,-0.36711,-40.65144,0.63997,0.93772,-0.00106,0.00635,-0.34733,0.00000,0.00000,0.00000,0.00000,1,0,
07.10 14:10:18:240,23367,-0.08445,-0.03791,9.80203,2715785002763741317562368.00000,0.00000,-0.00000,-0.24631,0.34400,-0.68257,-0.36635,-40.65203,0.63951,0.93772,-0.00106,0.00634,-0.34734,0.00000,0.00000,0.00000,0.00000,1,0,
07.10 14:10:18:250,23368,-0.10750,-0.05747,9.80089,2715785002763741317562368.00000,0.00000,-0.00000,-0.24779,0.34400,-0.68258,-0.36723,-40.65143,0.63995,0.93772,-0.00107,0.00635,-0.34733,0.00000,0.00000,0.00000,0.00000,1,0,
07.10 14:10:18:260,23369,-0.10008,-0.05092,9.79679,2715785002763741317562368.00000,0.00000,-0.00000,-0.24679,0.34554,-0.68456,-0.36689,-40.65266,0.64089,0.93772,-0.00106,0.00636,-0.34734,0.00000,0.00000,0.00000,0.00000,1,0,
07.10 14:10:18:270,23370,-0.08865,-0.04405,9.79302,2715785002763741317562368.00000,0.00000,-0.00000,-0.24680,0.34452,-0.68356,-0.36776,-40.65276,0.64122,0.93772,-0.00107,0.00636,-0.34734,0.00000,0.00000,0.00000,0.00000,1,0,
07.10 14:10:18:279,23371,-0.09148,-0.04024,9.78827,2715785002763741317562368.00000,0.00000,-0.00000,-0.24379,0.34365,-0.68951,-0.36881,-40.65250,0.64071,0.93772,-0.00108,0.00636,-0.34734,0.00000,0.00000,0.00000,0.00000,1,0,
07.10 14:10:18:289,23372,-0.10477,-0.05388,9.81000,2715785002763741317562368.00000,0.00000,-0.00000,-0.24729,0.34505,-0.68506,-0.36775,-40.65261,0.64069,0.93772,-0.00107,0.00636,-0.34734,0.00000,0.00000,0.00000,0.00000,1,0,
07.10 14:10:18:299,23373,-0.09937,-0.04650,9.79958,2715785002763741317562368.00000,0.00000,-0.00000,-0.24729,0.34405,-0.68506,-0.36885,-40.65301,0.64142,0.93772,-0.00107,0.00637,-0.34735,0.00000,0.00000,0.00000,0.00000,1,0,
07.10 14:10:18:310,23374,-0.08363,-0.04775,9.80301,2715785002763741317562368.00000,0.00000,-0.00000,-0.24779,0.34703,-0.68456,-0.36909,-40.65274,0.64102,0.93772,-0.00108,0.00636,-0.34734,0.00000,0.00000,0.00000,0.00000,1,0,
07.10 14:10:18:319,23375,-0.09692,-0.04448,9.80620,2715785002763741317562368.00000,0.00000,-0.00000,-0.24826,0.34762,-0.68904,-0.36928,-40.65192,0.64040,0.93772,-0.00108,0.00636,-0.34734,0.00000,0.00000,0.00000,0.00000,1,0,
07.10 14:10:18:330,23376,-0.07736,-0.04996,9.78274,2715785002763741317562368.00000,0.00000,-0.00000,-0.24631,0.34450,-0.68256,-0.36920,-40.65092,0.64016,0.93772,-0.00108,0.00636,-0.34733,0.00000,0.00000,0.00000,0.00000,1,0,
07.10 14:10:18:339,23377,-0.09760,-0.02765,9.80685,2715785002763741317562368.00000,0.00000,-0.00000,-0.24779,0.34450,-0.68258,-0.36934,-40.65047,0.63946,0.93772,-0.00108,0.00635,-0.34732,0.00000,0.00000,0.00000,0.00000,1,0,
07.10 14:10:18:349,23378,-0.09806,-0.04351,9.80527,2715785002763741317562368.00000,0.00000,-0.00000,-0.24779,0.34350,-0.68258,-0.36984,-40.64947,0.63885,0.93773,-0.00109,0.00635,-0.34732,0.00000,0.00000,0.00000,0.00000,1,0,
07.10 14:10:18:358,23379,-0.08574,-0.03717,9.79111,2715785002763741317562368.00000,0.00000,-0.00000,-0.24829,0.34498,-0.68208,-0.36898,-40.64967,0.63925,0.93773,-0.00108,0.00635,-0.34732,0.00000,0.00000,0.00000,0.00000,1,0,
07.10 14:10:18:368,23380,-0.10522,-0.04643,9.80065,2715785002763741317562368.00000,0.00000,-0.00000,-0.24778,0.34653,-0.68456,-0.37188,-40.64882,0.63925,0.93773,-0.00111,0.00636,-0.34731,0.00000,0.00000,0.00000,0.00000,1,0,
07.10 14:10:18:379,23381,-0.07787,-0.04086,9.79719,2715785002763741317562368.00000,0.00000,-0.00000,-0.24729,0.34502,-0.68357,-0.36998,-40.64956,0.63837,0.93773,-0.00109,0.00635,-0.34732,0.00000,0.00000,0.00000,0.00000,1,0,
07.10 14:10:18:389,23382,-0.08543,-0.03549,9.78815,2715785002763741317562368.00000,0.00000,-0.00000,-0.24730,0.34448,-0.68158,-0.36858,-40.64916,0.63876,0.93773,-0.00108,0.00634,-0.34731,0.00000,0.00000,0.00000,0.00000,1,0,
07.10 14:10:18:399,23383,-0.08788,-0.05240,9.79521,2715785002763741317562368.00000,0.00000,-0.00000,-0.24580,0.34553,-0.68405,-0.36795,-40.64933,0.63908,0.93773,-0.00107,0.00635,-0.34732,0.00000,0.00000,0.00000,0.00000,1,0,
07.10 14:10:18:410,23384,-0.09022,-0.04429,9.79984,2715785002763741317562368.00000,0.00000,-0.00000,-0.24779,0.34401,-0.68308,-0.36781,-40.64949,0.63958,0.93773,-0.00107,0.00635,-0.34732,0.00000,0.00000,0.00000,0.00000,1,0,
07.10 14:10:18:420,23385,-0.09388,-0.04615,9.79905,2715785002763741317562368.00000,0.00000,-0.00000,-0.24979,0.34496,-0.68110,-0.36773,-40.64872,0.63914,0.93773,-0.00107,0.00634,-0.34731,0.00000,0.00000,0.00000,0.00000,1,0,
07.10 14:10:18:429,23386,-0.08626,-0.04590,9.79130,2715785002763741317562368.00000,0.00000,-0.00000,-0.24830,0.34646,-0.68108,-0.36867,-40.64793,0.63917,0.93773,-0.00108,0.00635,-0.34730,0.00000,0.00000,0.00000,0.00000,1,0,
07.10 14:10:18:440,23387,-0.07719,-0.04582,9.79695,2715785002763741317562368.00000,0.00000,-0.00000,-0.24928,0.34402,-0.68408,-0.36789,-40.64792,0.63894,0.93773,-0.00107,0.00634,-0.34730,0.00000,0.00000,0.00000,0.00000,1,0,
07.10 14:10:18:449,23388,-0.10664,-0.03842,9.80153,2715785002763741317562368.00000,0.00000,-0.00000,-0.24779,0.34451,-0.68307,-0.36657,-40.64734,0.63792,0.93773,-0.00107,0.00633,-0.34730,0.00000,0.00000,0.00000,0.00000,1,0,
07.10 14:10:18:459,23389,-0.09106,-0.04315,9.79559,2715785002763741317562368.00000,0.00000,-0.00000,-0.24630,0.34504,-0.68455,-0.36680,-40.64671,0.63763,0.93773,-0.00107,0.00633,-0.34729,0.00000,0.00000,0.00000,0.00000,1,0,
07.10 14:10:18:470,23390,-0.10379,-0.04770,9.79965,2715785002763741317562368.00000,0.00000,-0.00000,-0.24730,0.34299,-0.68208,-0.36537,-40.64654,0.63780,0.93773,-0.00106,0.00633,-0.34729,0.00000,0.00000,0.00000,0.00000,1,0,
07.10 14:10:18:480,23391,-0.08172,-0.05217,9.77361,2715785002763741317562368.00000,0.00000,-0.00000,-0.24779,0.34552,-0.68357,-0.36470,-40.64631,0.63783,0.93774,-0.00105,0.00632,-0.34729,0.00000,0.00000,0.00000,0.00000,1,0,
07.10 14:10:18:489,23392,-0.09331,-0.04616,9.79817,2715785002763741317562368.00000,0.00000,-0.00000,-0.24529,0.34311,-0.68754,-0.36461,-40.64528,0.63755,0.93774,-0.00105,0.00632,-0.34728,0.00000,0.00000,0.00000,0.00000,1,0,
07.10 14:10:18:499,23393,-0.09747,-0.04511,9.80191,2715785002763741317562368.00000,0.00000,-0.00000,-0.24580,0.34654,-0.68454,-0.36261,-40.64433,0.63793,0.93774,-0.00103,0.00632,-0.34727,0.00000,0.00000,0.00000,0.00000,1,0,
07.10 14:10:18:510,23394,-0.08908,-0.06422,9.79216,2715785002763741317562368.00000,0.00000,-0.00000,-0.24681,0.34596,-0.68057,-0.36109,-40.64445,0.63801,0.93774,-0.00102,0.00632,-0.34728,0.00000,0.00000,0.00000,0.00000,1,0,
07.10 14:10:18:520,23395,-0.09469,-0.01362,9.80844,2715785002763741317562368.00000,0.00000,-0.00000,-0.24681,0.34397,-0.68108,-0.36134,-40.64380,0.63785,0.93774,-0.00102,0.00631,-0.34727,0.00000,0.00000,0.00000,0.00000,1,0,
07.10 14:10:18:528,23396,-0.09522,-0.04495,9.80527,2715785002763741317562368.00000,0.00000,-0.00000,-0.24730,0.34400,-0.68257,-0.36183,-40.64349,0.63764,0.93774,-0.00103,0.00631,-0.34727,0.00000,0.00000,0.00000,0.00000,1,0,
07.10 14:10:18:539,23397,-0.08730,-0.04000,9.80456,2715785002763741317562368.00000,0.00000,-0.00000,-0.24879,0.34398,-0.68209,-0.36052,-40.64371,0.63732,0.93774,-0.00102,0.00631,-0.34727,0.00000,0.00000,0.00000,0.00000,1,0,
07.10 14:10:18:550,23398,-0.07848,-0.04319,9.79455,2715785002763741317562368.00000,0.00000,-0.00000,-0.24978,0.34650,-0.68308,-0.36090,-40.64327,0.63741,0.93774,-0.00102,0.00631,-0.34727,0.00000,0.00000,0.00000,0.00000,1,0,
07.10 14:10:18:559,23399,-0.09582,-0.04710,9.78880,2715785002763741317562368.00000,0.00000,-0.00000,-0.24679,0.34556,-0.68555,-0.36153,-40.64213,0.63756,0.93775,-0.00103,0.00631,-0.34726,0.00000,0.00000,0.00000,0.00000,1,0,
07.10 14:10:18:571,23400,-0.08244,-0.03963,9.79116,2715785002763741317562368.00000,0.00000,-0.00000,-0.24779,0.34651,-0.68356,-0.36048,-40.64186,0.63735,0.93775,-0.00102,0.00631,-0.34725,0.00000,0.00000,0.00000,0.00000,1,0,
07.10 14:10:18:580,23401,-0.09695,-0.04799,9.80663,2715785002763741317562368.00000,0.00000,-0.00000,-0.24829,0.34402,-0.68358,-0.36272,-40.63988,0.63698,0.93776,-0.00104,0.00631,-0.34724,0.00000,0.00000,0.00000,0.00000,1,0,
07.10 14:10:18:589,23402,-0.08130,-0.05231,9.79269,2715785002763741317562368.00000,0.00000,-0.00000,-0.24730,0.34451,-0.68307,-0.36013,-40.64030,0.63593,0.93775,-0.00102,0.00630,-0.34724,0.00000,0.00000,0.00000,0.00000,1,0,
07.10 14:10:18:600,23403,-0.09573,-0.04587,9.80256,2715785002763741317562368.00000,0.00000,-0.00000,-0.24730,0.34601,-0.68306,-0.35905,-40.64010,0.63641,0.93775,-0.00101,0.00630,-0.34724,0.00000,0.00000,0.00000,0.00000,1,0,
07.10 14:10:18:609,23404,-0.09875,-0.04291,9.79805,2715785002763741317562368.00000,0.00000,-0.00000,-0.24729,0.34502,-0.68357,-0.35964,-40.64019,0.63713,0.93775,-0.00101,0.00630,-0.34724,0.00000,0.00000,0.00000,0.00000,1,0,
07.10 14:10:18:618,23405,-0.10726,-0.04940,9.79846,2715785002763741317562368.00000,0.00000,-0.00000,-0.24679,0.34756,-0.68554,-0.35892,-40.64055,0.63806,0.93775,-0.00100,0.00631,-0.34724,0.00000,0.00000,0.00000,0.00000,1,0,
07.10 14:10:18:630,23406,-0.10411,-0.05461,9.80618,2715785002763741317562368.00000,0.00000,-0.00000,-0.24680,0.34449,-0.68207,-0.35851,-40.64057,0.63781,0.93775,-0.00100,0.00631,-0.34724,0.00000,0.00000,0.00000,0.00000,1,0,
07.10 14:10:18:641,23407,-0.09707,-0.03467,9.79767,2715785002763741317562368.00000,0.00000,-0.00000,-0.24779,0.34651,-0.68356,-0.36129,-40.63951,0.63758,0.93776,-0.00102,0.00631,-0.34724,0.00000,0.00000,0.00000,0.00000,1,0,
07.10 14:10:18:649,23408,-0.09926,-0.04213,9.78870,2715785002763741317562368.00000,0.00000,-0.00000,-0.24730,0.34598,-0.68157,-0.36225,-40.63900,0.63794,0.93776,-0.00103,0.00632,-0.34723,0.00000,0.00000,0.00000,0.00000,1,0,
07.10 14:10:18:661,23409,-0.09721,-0.04799,9.79416,2715785002763741317562368.00000,0.00000,-0.00000,-0.24779,0.34551,-0.68307,-0.36243,-40.63856,0.63808,0.93776,-0.00103,0.00632,-0.34723,0.00000,0.00000,0.00000,0.00000,1,0,
07.10 14:10:18:669,23410,-0.10176,-0.05011,9.79509,2715785002763741317562368.00000,0.00000,-0.00000,-0.24829,0.34551,-0.68357,-0.36282,-40.63867,0.63869,0.93776,-0.00103,0.00633,-0.34723,0.00000,0.00000,0.00000,0.00000,1,0,
07.10 14:10:18:679,23411,-0.08269,-0.04078,9.78825,2715785002763741317562368.00000,0.00000,-0.00000,-0.24580,0.34403,-0.68406,-0.36417,-40.63864,0.63810,0.93776,-0.00105,0.00633,-0.34723,0.00000,0.00000,0.00000,0.00000,1,0,
07.10 14:10:18:689,23412,-0.08853,-0.05503,9.79419,2715785002763741317562368.00000,0.00000,-0.00000,-0.24875,0.34515,-0.69054,-0.36458,-40.63812,0.63815,0.93776,-0.00105,0.00633,-0.34722,0.00000,0.00000,0.00000,0.00000,1,0,
07.10 14:10:18:699,23413,-0.11678,-0.06659,9.79474,2715785002763741317562368.00000,0.00000,-0.00000,-0.24679,0.34604,-0.68455,-0.36439,-40.63832,0.63826,0.93776,-0.00105,0.00633,-0.34723,0.00000,0.00000,0.00000,0.00000,1,0,
07.10 14:10:18:709,23414,-0.08263,-0.06056,9.79571,2715785002763741317562368.00000,0.00000,-0.00000,-0.24729,0.34303,-0.68407,-0.36410,-40.63951,0.63854,0.93776,-0.00104,0.00633,-0.34724,0.00000,0.00000,0.00000,0.00000,1,0,
07.10 14:10:18:719,23415,-0.09636,-0.02785,9.78360,2715785002763741317562368.00000,0.00000,-0.00000,-0.25028,0.34548,-0.68209,-0.36185,-40.63971,0.63810,0.93776,-0.00103,0.00632,-0.34724,0.00000,0.00000,0.00000,0.00000,1,0,
07.10 14:10:18:731,23416,-0.07717,-0.03917,9.79192,2715785002763741317562368.00000,0.00000,-0.00000,-0.24681,0.34547,-0.68107,-0.36230,-40.63945,0.63813,0.93776,-0.00103,0.00632,-0.34723,0.00000,0.00000,0.00000,0.00000,1,0,
07.10 14:10:18:739,23417,-0.09763,-0.03848,9.79521,2715785002763741317562368.00000,0.00000,-0.00000,-0.24681,0.34549,-0.68207,-0.36403,-40.63848,0.63742,0.93776,-0.00105,0.00632,-0.34723,0.00000,0.00000,0.00000,0.00000,1,0,
07.10 14:10:18:749,23418,-0.09161,-0.03071,9.79819,2715785002763741317562368.00000,0.00000,-0.00000,-0.24679,0.34404,-0.68456,-0.36381,-40.63852,0.63883,0.93776,-0.00104,0.00633,-0.34723,0.00000,0.00000,0.00000,0.00000,1,0,
07.10 14:10:18:760,23419,-0.10311,-0.04593,9.79142,2715785002763741317562368.00000,0.00000,-0.00000,-0.24829,0.34699,-0.68257,-0.36364,-40.63778,0.63770,0.93776,-0.00104,0.00632,-0.34722,0.00000,0.00000,0.00000,0.00000,1,0,
07.10 14:10:18:771,23420,-0.09341,-0.04264,9.79307,2715785002763741317562368.00000,0.00000,-0.00000,-0.24626,0.34617,-0.69102,-0.36301,-40.63738,0.63768,0.93776,-0.00104,0.00632,-0.34722,0.00000,0.00000,0.00000,0.00000,1,0,
07.10 14:10:18:779,23421,-0.10925,-0.03853,9.79970,2715785002763741317562368.00000,0.00000,-0.00000,-0.24531,0.34403,-0.68405,-0.36379,-40.63710,0.63817,0.93776,-0.00104,0.00632,-0.34722,0.00000,0.00000,0.00000,0.00000,1,0,
07.10 14:10:18:790,23422,-0.09416,-0.05734,9.79335,2715785002763741317562368.00000,0.00000,-0.00000,-0.25026,0.34554,-0.68508,-0.36466,-40.63671,0.63807,0.93776,-0.00105,0.00633,-0.34721,0.00000,0.00000,0.00000,0.00000,1,0,
07.10 14:10:18:800,23423,-0.10615,-0.04366,9.78937,2715785002763741317562368.00000,0.00000,-0.00000,-0.24729,0.34552,-0.68356,-0.36499,-40.63673,0.63875,0.93776,-0.00105,0.00633,-0.34721,0.00000,0.00000,0.00000,0.00000,1,0,
07.10 14:10:18:810,23424,-0.08519,-0.06468,9.80044,2715785002763741317562368.00000,0.00000,-0.00000,-0.24779,0.34550,-0.68257,-0.36419,-40.63703,0.63902,0.93776,-0.00104,0.00633,-0.34721,0.00000,0.00000,0.00000,0.00000,1,0,
07.10 14:10:18:819,23425,-0.11691,-0.04614,9.79512,2715785002763741317562368.00000,0.00000,-0.00000,-0.24780,0.34597,-0.68158,-0.36337,-40.63688,0.63871,0.93776,-0.00104,0.00633,-0.34721,0.00000,0.00000,0.00000,0.00000,1,0,
07.10 14:10:18:830,23426,-0.09953,-0.04296,9.79514,2715785002763741317562368.00000,0.00000,-0.00000,-0.24779,0.34303,-0.68407,-0.36310,-40.63627,0.63841,0.93777,-0.00104,0.00632,-0.34721,0.00000,0.00000,0.00000,0.00000,1,0,
07.10 14:10:18:839,23427,-0.09854,-0.03808,9.79226,2715785002763741317562368.00000,0.00000,-0.00000,-0.24828,0.34754,-0.68506,-0.36180,-40.63562,0.63809,0.93777,-0.00103,0.00632,-0.34720,0.00000,0.00000,0.00000,0.00000,1,0,
07.10 14:10:18:850,23428,-0.10207,-0.05044,9.79714,2715785002763741317562368.00000,0.00000,-0.00000,-0.24828,0.34553,-0.68457,-0.36256,-40.63556,0.63797,0.93777,-0.00103,0.00632,-0.34720,0.00000,0.00000,0.00000,0.00000,1,0,
07.10 14:10:18:859,23429,-0.08748,-0.04685,9.78708,2715785002763741317562368.00000,0.00000,-0.00000,-0.24778,0.34356,-0.68557,-0.36359,-40.63493,0.63815,0.93777,-0.00104,0.00632,-0.34720,0.00000,0.00000,0.00000,0.00000,1,0,
07.10 14:10:18:869,23430,-0.08883,-0.06364,9.79417,2715785002763741317562368.00000,0.00000,-0.00000,-0.24828,0.34404,-0.68457,-0.36244,-40.63501,0.63873,0.93777,-0.00103,0.00633,-0.34720,0.00000,0.00000,0.00000,0.00000,1,0,
07.10 14:10:18:879,23431,-0.08136,-0.04749,9.79142,2715785002763741317562368.00000,0.00000,-0.00000,-0.24631,0.34447,-0.68107,-0.36307,-40.63442,0.63937,0.93777,-0.00103,0.00633,-0.34719,0.00000,0.00000,0.00000,0.00000,1,0,
07.10 14:10:18:890,23432,-0.09959,-0.05756,9.79908,2715785002763741317562368.00000,0.00000,-0.00000,-0.24630,0.34351,-0.68307,-0.36217,-40.63358,0.64042,0.93777,-0.00102,0.00634,-0.34719,0.00000,0.00000,0.00000,0.00000,1,0,
07.10 14:10:18:899,23433,-0.09272,-0.05240,9.79452,2715785002763741317562368.00000,0.00000,-0.00000,-0.24582,0.34498,-0.68156,-0.36215,-40.63275,0.64086,0.93778,-0.00102,0.00634,-0.34718,0.00000,0.00000,0.00000,0.00000,1,0,
07.10 14:10:18:910,23434,-0.08237,-0.02783,9.79173,2715785002763741317562368.00000,0.00000,-0.00000,-0.24779,0.34553,-0.68407,-0.36140,-40.63252,0.64066,0.93778,-0.00102,0.00634,-0.34718,0.00000,0.00000,0.00000,0.00000,1,0,
07.10 14:10:18:920,23435,-0.08281,-0.03922,9.79264,2715785002763741317562368.00000,0.00000,-0.00000,-0.24730,0.34399,-0.68208,-0.36134,-40.63214,0.64107,0.93778,-0.00101,0.00634,-0.34717,0.00000,0.00000,0.00000,0.00000,1,0,
07.10 14:10:18:929,23436,-0.09074,-0.04478,9.80446,2715785002763741317562368.00000,0.00000,-0.00000,-0.24929,0.34545,-0.68059,-0.36118,-40.63231,0.64019,0.93778,-0.00102,0.00633,-0.34718,0.00000,0.00000,0.00000,0.00000,1,0,
07.10 14:10:18:939,23437,-0.09912,-0.03333,9.79280,2715785002763741317562368.00000,0.00000,-0.00000,-0.24730,0.34501,-0.68307,-0.36276,-40.63182,0.64052,0.93778,-0.00103,0.00634,-0.34717,0.00000,0.00000,0.00000,0.00000,1,0,
07.10 14:10:18:949,23438,-0.09364,-0.03609,9.79974,2715785002763741317562368.00000,0.00000,-0.00000,-0.24878,0.34602,-0.68407,-0.36416,-40.63180,0.64084,0.93778,-0.00104,0.00635,-0.34717,0.00000,0.00000,0.00000,0.00000,1,0,
07.10 14:10:18:960,23439,-0.08705,-0.06977,9.80034,2715785002763741317562368.00000,0.00000,-0.00000,-0.24729,0.34452,-0.68357,-0.36342,-40.63167,0.63966,0.93778,-0.00104,0.00634,-0.34717,0.00000,0.00000,0.00000,0.00000,1,0,
07.10 14:10:18:970,23440,-0.10187,-0.05650,9.79235,2715785002763741317562368.00000,0.00000,-0.00000,-0.24829,0.34452,-0.68358,-0.36345,-40.63013,0.63981,0.93778,-0.00104,0.00634,-0.34716,0.00000,0.00000,0.00000,0.00000,1,0,
07.10 14:10:18:980,23441,-0.07848,-0.04422,9.80470,2715785002763741317562368.00000,0.00000,-0.00000,-0.24827,0.34307,-0.68607,-0.36353,-40.62945,0.63951,0.93779,-0.00104,0.00634,-0.34715,0.00000,0.00000,0.00000,0.00000,1,0,
07.10 14:10:18:990,23442,-0.07987,-0.04531,9.80699,2715785002763741317562368.00000,0.00000,-0.00000,-0.24679,0.34453,-0.68406,-0.36150,-40.63014,0.63956,0.93778,-0.00102,0.00633,-0.34716,0.00000,0.00000,0.00000,0.00000,1,0,
07.10 14:10:19:000,23443,-0.10573,-0.03903,9.80198,2715785002763741317562368.00000,0.00000,-0.00000,-0.24730,0.34651,-0.68306,-0.36366,-40.62887,0.63950,0.93779,-0.00104,0.00634,-0.34715,0.00000,0.00000,0.00000,0.00000,1,0,
07.10 14:10:19:008,23444,-0.10347,-0.06343,9.79252,2715785002763741317562368.00000,0.00000,-0.00000,-0.24630,0.34303,-0.68406,-0.36416,-40.62868,0.63842,0.93779,-0.00105,0.00633,-0.34715,0.00000,0.00000,0.00000,0.00000,1,0,
07.10 14:10:19:019,23445,-0.08349,-0.04073,9.79562,2715785002763741317562368.00000,0.00000,-0.00000,-0.24928,0.34500,-0.68308,-0.36148,-40.62893,0.63780,0.93779,-0.00103,0.00631,-0.34715,0.00000,0.00000,0.00000,0.00000,1,0,
07.10 14:10:19:029,23446,-0.10174,-0.03680,9.79476,2715785002763741317562368.00000,0.00000,-0.00000,-0.24779,0.34452,-0.68357,-0.36086,-40.62910,0.63755,0.93779,-0.00102,0.00631,-0.34715,0.00000,0.00000,0.00000,0.00000,1,0,
07.10 14:10:19:040,23447,-0.08658,-0.03302,9.79988,2715785002763741317562368.00000,0.00000,-0.00000,-0.24679,0.34656,-0.68555,-0.36156,-40.62929,0.63887,0.93779,-0.00102,0.00632,-0.34715,0.00000,0.00000,0.00000,0.00000,1,0,
07.10 14:10:19:050,23448,-0.08613,-0.04668,9.80501,2715785002763741317562368.00000,0.00000,-0.00000,-0.24779,0.34800,-0.68306,-0.36107,-40.62773,0.63887,0.93779,-0.00102,0.00632,-0.34714,0.00000,0.00000,0.00000,0.00000,1,0,
07.10 14:10:19:059,23449,-0.08289,-0.04299,9.80778,2715785002763741317562368.00000,0.00000,-0.00000,-0.24731,0.34445,-0.68008,-0.36143,-40.62707,0.63851,0.93779,-0.00102,0.00632,-0.34713,0.00000,0.00000,0.00000,0.00000,1,0,
07.10 14:10:19:069,23450,-0.08579,-0.04487,9.79998,2715785002763741317562368.00000,0.00000,-0.00000,-0.24630,0.34401,-0.68306,-0.36214,-40.62659,0.63749,0.93780,-0.00103,0.00631,-0.34713,0.00000,0.00000,0.00000,0.00000,1,0,
07.10 14:10:19:080,23451,-0.08475,-0.04880,9.79848,2715785002763741317562368.00000,0.00000,-0.00000,-0.24874,0.34516,-0.69104,-0.36115,-40.62639,0.63744,0.93780,-0.00102,0.00631,-0.34713,0.00000,0.00000,0.00000,0.00000,1,0,
07.10 14:10:19:090,23452,-0.09220,-0.03519,9.79309,2715785002763741317562368.00000,0.00000,-0.00000,-0.24729,0.34251,-0.68308,-0.35959,-40.62610,0.63581,0.93780,-0.00102,0.00629,-0.34713,0.00000,0.00000,0.00000,0.00000,1,0,
07.10 14:10:19:099,23453,-0.09779,-0.04831,9.78517,2715785002763741317562368.00000,0.00000,-0.00000,-0.24779,0.34550,-0.68257,-0.36030,-40.62621,0.63691,0.93780,-0.00102,0.00630,-0.34713,0.00000,0.00000,0.00000,0.00000,1,0,
07.10 14:10:19:109,23454,-0.10968,-0.06107,9.79760,2715785002763741317562368.00000,0.00000,-0.00000,-0.24927,0.34302,-0.68409,-0.35992,-40.62691,0.63728,0.93779,-0.00101,0.00631,-0.34713,0.00000,0.00000,0.00000,0.00000,1,0,
07.10 14:10:19:119,23455,-0.07407,-0.05219,9.80864,2715785002763741317562368.00000,0.00000,-0.00000,-0.24681,0.34599,-0.68207,-0.35870,-40.62711,0.63705,0.93779,-0.00101,0.00630,-0.34713,0.00000,0.00000,0.00000,0.00000,1,0,
07.10 14:10:19:129,23456,-0.10474,-0.05239,9.79505,2715785002763741317562368.00000,0.00000,-0.00000,-0.24681,0.34548,-0.68157,-0.35822,-40.62666,0.63616,0.93780,-0.00100,0.00629,-0.34713,0.00000,0.00000,0.00000,0.00000,1,0,
07.10 14:10:19:139,23457,-0.08888,-0.04202,9.81340,2715785002763741317562368.00000,0.00000,-0.00000,-0.24631,0.34647,-0.68106,-0.35730,-40.62655,0.63577,0.93780,-0.00100,0.00629,-0.34713,0.00000,0.00000,0.00000,0.00000,1,0,
07.10 14:10:19:149,23458,-0.08080,-0.04692,9.80499,2715785002763741317562368.00000,0.00000,-0.00000,-0.24729,0.34602,-0.68356,-0.35726,-40.62585,0.63546,0.93780,-0.00100,0.00628,-0.34712,0.00000,0.00000,0.00000,0.00000,1,0,
07.10 14:10:19:159,23459,-0.09212,-0.04509,9.80511,2715785002763741317562368.00000,0.00000,-0.00000,-0.24629,0.34457,-0.68605,-0.35975,-40.62496,0.63543,0.93780,-0.00102,0.00629,-0.34712,0.00000,0.00000,0.00000,0.00000,1,0,
07.10 14:10:19:169,23460,-0.10772,-0.03079,9.80861,2715785002763741317562368.00000,0.00000,-0.00000,-0.24779,0.34302,-0.68358,-0.35974,-40.62504,0.63592,0.93780,-0.00102,0.00629,-0.34712,0.00000,0.00000,0.00000,0.00000,1,0,
07.10 14:10:19:180,23461,-0.09737,-0.05311,9.80702,2715785002763741317562368.00000,0.00000,-0.00000,-0.24729,0.34201,-0.68308,-0.36007,-40.62414,0.63511,0.93780,-0.00102,0.00629,-0.34711,0.00000,0.00000,0.00000,0.00000,1,0,
07.10 14:10:19:190,23462,-0.10997,-0.03425,9.79309,2715785002763741317562368.00000,0.00000,-0.00000,-0.24729,0.34604,-0.68456,-0.36193,-40.62392,0.63467,0.93780,-0.00104,0.00629,-0.34711,0.00000,0.00000,0.00000,0.00000,1,0,
07.10 14:10:19:199,23463,-0.09400,-0.04763,9.79054,2715785002763741317562368.00000,0.00000,-0.00000,-0.24730,0.34500,-0.68257,-0.36089,-40.62417,0.63399,0.93780,-0.00103,0.00628,-0.34711,0.00000,0.00000,0.00000,0.00000,1,0,
07.10 14:10:19:209,23464,-0.08320,-0.04191,9.79571,2715785002763741317562368.00000,0.00000,-0.00000,-0.24979,0.34647,-0.68159,-0.36187,-40.62352,0.63471,0.93780,-0.00104,0.00629,-0.34710,0.00000,0.00000,0.00000,0.00000,1,0,
07.10 14:10:19:219,23465,-0.09467,-0.04929,9.79829,2715785002763741317562368.00000,0.00000,-0.00000,-0.24581,0.34349,-0.68207,-0.36406,-40.61647,0.64025,0.93783,-0.00104,0.00634,-0.34705,0.00000,0.00000,0.00000,0.00000,1,0,
07.10 14:10:19:229,23466,-0.09613,-0.03570,9.79571,2715785002763741317562368.00000,0.00000,-0.00000,-0.24829,0.34349,-0.68209,-0.36392,-40.61637,0.63998,0.93783,-0.00104,0.00634,-0.34705,0.00000,0.00000,0.00000,0.00000,1,0,
07.10 14:10:19:239,23467,-0.08262,-0.00901,9.80427,2715785002763741317562368.00000,0.00000,-0.00000,-0.24779,0.34553,-0.68407,-0.36347,-40.61658,0.63953,0.93783,-0.00104,0.00633,-0.34705,0.00000,0.00000,0.00000,0.00000,1,0,
07.10 14:10:19:249,23468,-0.09460,-0.04186,9.79645,2715785002763741317562368.00000,0.00000,-0.00000,-0.24781,0.34694,-0.68008,-0.36429,-40.61592,0.64082,0.93783,-0.00104,0.00635,-0.34704,0.00000,0.00000,0.00000,0.00000,1,0,
07.10 14:10:19:260,23469,-0.09954,-0.05496,9.79164,2715785002763741317562368.00000,0.00000,-0.00000,-0.24779,0.34502,-0.68357,-0.36518,-40.61583,0.64090,0.93783,-0.00105,0.00635,-0.34704,0.00000,0.00000,0.00000,0.00000,1,0,
07.10 14:10:19:270,23470,-0.11061,-0.05018,9.80034,2715785002763741317562368.00000,0.00000,-0.00000,-0.24580,0.34403,-0.68406,-0.36785,-40.61455,0.64121,0.93783,-0.00107,0.00636,-0.34703,0.00000,0.00000,0.00000,0.00000,1,0,
07.10 14:10:19:279,23471,-0.08840,-0.03523,9.79328,2715785002763741317562368.00000,0.00000,-0.00000,-0.24680,0.34302,-0.68357,-0.36975,-40.61444,0.64130,0.93783,-0.00108,0.00637,-0.34703,0.00000,0.00000,0.00000,0.00000,1,0,
07.10 14:10:19:290,23472,-0.09797,-0.04752,9.79547,2715785002763741317562368.00000,0.00000,-0.00000,-0.24679,0.34153,-0.68407,-0.36935,-40.61449,0.64267,0.93783,-0.00108,0.00638,-0.34703,0.00000,0.00000,0.00000,0.00000,1,0,
07.10 14:10:19:300,23473,-0.08774,-0.05712,9.79648,2715785002763741317562368.00000,0.00000,-0.00000,-0.24829,0.34449,-0.68258,-0.36852,-40.61482,0.64190,0.93783,-0.00107,0.00637,-0.34703,0.00000,0.00000,0.00000,0.00000,1,0,
07.10 14:10:19:310,23474,-0.08030,-0.03259,9.80446,2715785002763741317562368.00000,0.00000,-0.00000,-0.24879,0.34449,-0.68258,-0.37052,-40.61409,0.64191,0.93783,-0.00109,0.00638,-0.34703,0.00000,0.00000,0.00000,0.00000,1,0,
07.10 14:10:19:319,23475,-0.07432,-0.03828,9.80270,2715785002763741317562368.00000,0.00000,-0.00000,-0.24779,0.34300,-0.68258,-0.36955,-40.61427,0.64194,0.93783,-0.00108,0.00637,-0.34703,0.00000,0.00000,0.00000,0.00000,1,0,
07.10 14:10:19:329,23476,-0.08769,-0.04717,9.79436,2715785002763741317562368.00000,0.00000,-0.00000,-0.24630,0.34401,-0.68306,-0.36841,-40.61467,0.64197,0.93783,-0.00107,0.00637,-0.34703,0.00000,0.00000,0.00000,0.00000,1,0,
07.10 14:10:19:340,23477,-0.11268,-0.02819,9.79807,2715785002763741317562368.00000,0.00000,-0.00000,-0.24878,0.34451,-0.68358,-0.36907,-40.61456,0.64254,0.93783,-0.00107,0.00638,-0.34703,0.00000,0.00000,0.00000,0.00000,1,0,
07.10 14:10:19:349,23478,-0.08720,-0.04363,9.79025,2715785002763741317562368.00000,0.00000,-0.00000,-0.24829,0.34650,-0.68307,-0.36858,-40.61477,0.64328,0.93783,-0.00107,0.00638,-0.34703,0.00000,0.00000,0.00000,0.00000,1,0,
07.10 14:10:19:359,23479,-0.09044,-0.04266,9.80144,2715785002763741317562368.00000,0.00000,-0.00000,-0.24679,0.34603,-0.68406,-0.36959,-40.61515,0.64207,0.93783,-0.00108,0.00637,-0.34704,0.00000,0.00000,0.00000,0.00000,1,0,
07.10 14:10:19:370,23480,-0.10265,-0.04884,9.78832,2715785002763741317562368.00000,0.00000,-0.00000,-0.24730,0.34449,-0.68207,-0.37080,-40.61472,0.64121,0.93783,-0.00109,0.00637,-0.34703,0.00000,0.00000,0.00000,0.00000,1,0,
07.10 14:10:19:380,23481,-0.08953,-0.05549,9.80043,2715785002763741317562368.00000,0.00000,-0.00000,-0.24829,0.34402,-0.68358,-0.37069,-40.61399,0.64101,0.93783,-0.00109,0.00637,-0.34703,0.00000,0.00000,0.00000,0.00000,1,0,
07.10 14:10:19:389,23482,-0.08150,-0.03682,9.80435,2715785002763741317562368.00000,0.00000,-0.00000,-0.24630,0.34553,-0.68405,-0.36809,-40.61441,0.64101,0.93783,-0.00107,0.00636,-0.34703,0.00000,0.00000,0.00000,0.00000,1,0,
07.10 14:10:19:399,23483,-0.08287,-0.04905,9.78835,2715785002763741317562368.00000,0.00000,-0.00000,-0.24631,0.34550,-0.68256,-0.36822,-40.61383,0.64167,0.93783,-0.00107,0.00637,-0.34702,0.00000,0.00000,0.00000,0.00000,1,0,
07.10 14:10:19:409,23484,-0.09667,-0.05561,9.80275,2715785002763741317562368.00000,0.00000,-0.00000,-0.24879,0.34397,-0.68159,-0.36787,-40.61323,0.64224,0.93784,-0.00107,0.00637,-0.34702,0.00000,0.00000,0.00000,0.00000,1,0,
07.10 14:10:19:419,23485,-0.10340,-0.05885,9.80425,2715785002763741317562368.00000,0.00000,-0.00000,-0.24679,0.34403,-0.68406,-0.36707,-40.61333,0.64222,0.93784,-0.00106,0.00637,-0.34702,0.00000,0.00000,0.00000,0.00000,1,0,
07.10 14:10:19:430,23486,-0.08762,-0.04405,9.80029,2715785002763741317562368.00000,0.00000,-0.00000,-0.24680,0.34700,-0.68256,-0.36737,-40.61345,0.64193,0.93783,-0.00106,0.00637,-0.34702,0.00000,0.00000,0.00000,0.00000,1,0,
07.10 14:10:19:439,23487,-0.10873,-0.06375,9.81019,2715785002763741317562368.00000,0.00000,-0.00000,-0.24879,0.34598,-0.68208,-0.36634,-40.61362,0.64242,0.93783,-0.00105,0.00637,-0.34702,0.00000,0.00000,0.00000,0.00000,1,0,
07.10 14:10:19:448,23488,-0.09881,-0.06155,9.80885,2715785002763741317562368.00000,0.00000,-0.00000,-0.24630,0.34554,-0.68455,-0.36487,-40.61325,0.64310,0.93784,-0.00104,0.00637,-0.34702,0.00000,0.00000,0.00000,0.00000,1,0,
07.10 14:10:19:460,23489,-0.09313,-0.00870,9.80256,2715785002763741317562368.00000,0.00000,-0.00000,-0.24780,0.34599,-0.68257,-0.36339,-40.61299,0.64240,0.93784,-0.00103,0.00636,-0.34702,0.00000,0.00000,0.00000,0.00000,1,0,
07.10 14:10:19:470,23490,-0.10098,-0.05596,9.80451,2715785002763741317562368.00000,0.00000,-0.00000,-0.24977,0.34754,-0.68507,-0.36302,-40.61243,0.64106,0.93784,-0.00103,0.00635,-0.34701,0.00000,0.00000,0.00000,0.00000,1,0,
07.10 14:10:19:479,23491,-0.07912,-0.04844,9.79004,2715785002763741317562368.00000,0.00000,-0.00000,-0.24729,0.34655,-0.68505,-0.36157,-40.61180,0.64112,0.93784,-0.00102,0.00634,-0.34701,0.00000,0.00000,0.00000,0.00000,1,0,
07.10 14:10:19:489,23492,-0.11255,-0.04533,9.80332,2715785002763741317562368.00000,0.00000,-0.00000,-0.24731,0.34547,-0.68108,-0.36279,-40.61052,0.64039,0.93784,-0.00103,0.00634,-0.34700,0.00000,0.00000,0.00000,0.00000,1,0,
07.10 14:10:19:499,23493,-0.10171,-0.05520,9.80325,2715785002763741317562368.00000,0.00000,-0.00000,-0.24581,0.34551,-0.68305,-0.36248,-40.60980,0.64069,0.93785,-0.00103,0.00634,-0.34699,0.00000,0.00000,0.00000,0.00000,1,0,
07.10 14:10:19:509,23494,-0.09005,-0.04535,9.78792,2715785002763741317562368.00000,0.00000,-0.00000,-0.24879,0.34399,-0.68259,-0.36187,-40.60843,0.63967,0.93785,-0.00102,0.00633,-0.34698,0.00000,0.00000,0.00000,0.00000,1,0,
07.10 14:10:19:519,23495,-0.09039,-0.04655,9.79917,2715785002763741317562368.00000,0.00000,-0.00000,-0.24779,0.34400,-0.68258,-0.36318,-40.60738,0.63957,0.93785,-0.00104,0.00633,-0.34697,0.00000,0.00000,0.00000,0.00000,1,0,
07.10 14:10:19:529,23496,-0.11687,-0.04702,9.79691,2715785002763741317562368.00000,0.00000,-0.00000,-0.24581,0.34350,-0.68256,-0.36334,-40.60648,0.63994,0.93786,-0.00104,0.00634,-0.34697,0.00000,0.00000,0.00000,0.00000,1,0,
07.10 14:10:19:539,23497,-0.07595,-0.02746,9.79009,2715785002763741317562368.00000,0.00000,-0.00000,-0.24778,0.34355,-0.68507,-0.36262,-40.60631,0.64019,0.93786,-0.00103,0.00634,-0.34696,0.00000,0.00000,0.00000,0.00000,1,0,
