Time,Counter,ax,ay,az,gx,gy,gz,mx,my,mz,roll,yaw,pitch,q0,q1,q2,q3,debug0,debug1,debug2,debug3,Rest,Mag Disturbance,
07.02 17:12:15:854,16382,-0.05758,-0.09151,9.79807,0.00000,0.00000,128.05975,0.28630,-0.04603,-0.58065,-0.36239,95.12926,0.26313,0.67475,-0.00383,-0.00078,0.73804,0.00000,0.00000,0.00000,0.00000,1,0,
07.02 17:12:15:858,16383,-0.06421,-0.06704,9.80995,0.00000,0.00000,-24685744208244365821214720.00000,0.28629,-0.04607,-0.57866,-0.36200,95.12843,0.26392,0.67475,-0.00383,-0.00078,0.73803,0.00000,0.00000,0.00000,0.00000,1,0,
07.02 17:12:15:869,16384,-0.05158,-0.07331,9.79986,0.00000,0.00000,-24685744208244365821214720.00000,0.28778,-0.04554,-0.58014,-0.36204,95.12807,0.26301,0.67476,-0.00383,-0.00078,0.73803,0.00000,0.00000,0.00000,0.00000,1,0,
07.02 17:12:15:878,16385,-0.04858,-0.09339,9.79462,0.00000,0.00000,-24685744208244365821214720.00000,0.28827,-0.04859,-0.57716,-0.36232,95.12790,0.26332,0.67476,-0.00383,-0.00078,0.73803,0.00000,0.00000,0.00000,0.00000,1,0,
07.02 17:12:15:889,16386,-0.04114,-0.09324,9.81197,0.00000,0.00000,-24685744208244365821214720.00000,0.28828,-0.04604,-0.57964,-0.36354,95.12873,0.26325,0.67475,-0.00384,-0.00079,0.73804,0.00000,0.00000,0.00000,0.00000,1,0,
07.02 17:12:15:898,16387,-0.06127,-0.07625,9.79727,0.00000,0.00000,-24685744208244365821214720.00000,0.28728,-0.04307,-0.57864,-0.36387,95.12892,0.26320,0.67475,-0.00384,-0.00079,0.73804,0.00000,0.00000,0.00000,0.00000,1,0,
07.02 17:12:15:910,16388,-0.05884,-0.10532,9.82802,0.00000,0.00000,-24685744208244365821214720.00000,0.28827,-0.04557,-0.57864,-0.36294,95.12763,0.26257,0.67476,-0.00383,-0.00079,0.73803,0.00000,0.00000,0.00000,0.00000,1,0,
07.02 17:12:15:918,16389,-0.05356,-0.07243,9.76587,0.00000,0.00000,-24685744208244365821214720.00000,0.28630,-0.04552,-0.58114,-0.36182,95.12751,0.26287,0.67476,-0.00382,-0.00078,0.73803,0.00000,0.00000,0.00000,0.00000,1,0,
07.02 17:12:15:927,16390,-0.07184,-0.10359,9.83126,0.00000,0.00000,-24685744208244365821214720.00000,0.28828,-0.04655,-0.57914,-0.36191,95.12784,0.26367,0.67476,-0.00383,-0.00078,0.73803,0.00000,0.00000,0.00000,0.00000,1,0,
07.02 17:12:15:937,16391,-0.06746,-0.05037,9.78906,0.00000,0.00000,-24685744208244365821214720.00000,0.28729,-0.04502,-0.58113,-0.36236,95.12766,0.26324,0.67476,-0.00383,-0.00078,0.73803,0.00000,0.00000,0.00000,0.00000,1,0,
07.02 17:12:15:949,16392,-0.08342,-0.06783,9.82852,0.00000,0.00000,-24685744208244365821214720.00000,0.28679,-0.04605,-0.57965,-0.36161,95.12949,0.26295,0.67475,-0.00382,-0.00078,0.73804,0.00000,0.00000,0.00000,0.00000,1,0,
07.02 17:12:15:958,16393,-0.05446,-0.07560,9.79111,0.00000,0.00000,-24685744208244365821214720.00000,0.28876,-0.04458,-0.57764,-0.36158,95.12839,0.26265,0.67475,-0.00382,-0.00078,0.73803,0.00000,0.00000,0.00000,0.00000,1,0,
07.02 17:12:15:968,16394,-0.05433,-0.07056,9.81856,0.00000,0.00000,-24685744208244365821214720.00000,0.28679,-0.04706,-0.57915,-0.36083,95.12752,0.26284,0.67476,-0.00382,-0.00078,0.73803,0.00000,0.00000,0.00000,0.00000,1,0,
07.02 17:12:15:979,16395,-0.05466,-0.06559,9.79199,0.00000,0.00000,-24685744208244365821214720.00000,0.28628,-0.04559,-0.57766,-0.36108,95.12895,0.26204,0.67475,-0.00381,-0.00078,0.73804,0.00000,0.00000,0.00000,0.00000,1,0,
07.02 17:12:15:988,16396,-0.06042,-0.06714,9.81066,0.00000,0.00000,-24685744208244365821214720.00000,0.28679,-0.04906,-0.57916,-0.36025,95.12828,0.26244,0.67475,-0.00381,-0.00077,0.73803,0.00000,0.00000,0.00000,0.00000,1,0,
07.02 17:12:15:998,16397,-0.07249,-0.08247,9.79588,0.00000,0.00000,-24685744208244365821214720.00000,0.28630,-0.04601,-0.58164,-0.36033,95.12566,0.26199,0.67477,-0.00381,-0.00078,0.73802,0.00000,0.00000,0.00000,0.00000,1,0,
07.02 17:12:16:010,16398,-0.06012,-0.06742,9.81159,0.00000,0.00000,-24685744208244365821214720.00000,0.28629,-0.04806,-0.57916,-0.36075,95.12438,0.26184,0.67478,-0.00381,-0.00078,0.73801,0.00000,0.00000,0.00000,0.00000,1,0,
07.02 17:12:16:018,16399,-0.06769,-0.08108,9.79271,0.00000,0.00000,-24685744208244365821214720.00000,0.28679,-0.04606,-0.57915,-0.36060,95.12425,0.26372,0.67478,-0.00382,-0.00077,0.73801,0.00000,0.00000,0.00000,0.00000,1,0,
07.02 17:12:16:029,16400,-0.08088,-0.10444,9.81825,0.00000,0.00000,-24685744208244365821214720.00000,0.28779,-0.04703,-0.58014,-0.35963,95.12334,0.26322,0.67479,-0.00381,-0.00077,0.73800,0.00000,0.00000,0.00000,0.00000,1,0,
07.02 17:12:16:037,16401,-0.04421,-0.07925,9.78532,0.00000,0.00000,-24685744208244365821214720.00000,0.28679,-0.04605,-0.57965,-0.34726,95.12183,0.25635,0.67480,-0.00370,-0.00073,0.73799,0.00000,0.00000,0.00000,0.00000,1,0,
07.02 17:12:16:048,16402,-0.06381,-0.07665,9.80315,0.00000,0.00000,-24685744208244365821214720.00000,0.28630,-0.04704,-0.58015,-0.34860,95.12353,0.25659,0.67479,-0.00371,-0.00073,0.73800,0.00000,0.00000,0.00000,0.00000,1,0,
07.02 17:12:16:059,16403,-0.07612,-0.08313,9.80265,0.00000,0.00000,-24685744208244365821214720.00000,0.28777,-0.04508,-0.57814,-0.34895,95.12316,0.25614,0.67479,-0.00370,-0.00074,0.73800,0.00000,0.00000,0.00000,0.00000,1,0,
07.02 17:12:16:067,16404,-0.06056,-0.08040,9.80392,0.00000,0.00000,-24685744208244365821214720.00000,0.28629,-0.04455,-0.57965,-0.34950,95.12241,0.25571,0.67479,-0.00370,-0.00075,0.73800,0.00000,0.00000,0.00000,0.00000,1,0,
07.02 17:12:16:077,16405,-0.05292,-0.08089,9.79078,0.00000,0.00000,-24685744208244365821214720.00000,0.28779,-0.04852,-0.58064,-0.34970,95.12166,0.25448,0.67480,-0.00370,-0.00075,0.73799,0.00000,0.00000,0.00000,0.00000,1,0,
07.02 17:12:16:089,16406,-0.06192,-0.08161,9.80732,0.00000,0.00000,-24685744208244365821214720.00000,0.28829,-0.04451,-0.58162,-0.34901,95.12381,0.25401,0.67478,-0.00369,-0.00075,0.73801,0.00000,0.00000,0.00000,0.00000,1,0,
07.02 17:12:16:098,16407,-0.03182,-0.08056,9.81999,0.00000,0.00000,-24685744208244365821214720.00000,0.28531,-0.04701,-0.58165,-0.34924,95.12354,0.25278,0.67479,-0.00368,-0.00076,0.73800,0.00000,0.00000,0.00000,0.00000,1,0,
07.02 17:12:16:110,16408,-0.04623,-0.08943,9.79829,0.00000,0.00000,-24685744208244365821214720.00000,0.28677,-0.04661,-0.57666,-0.34889,95.12352,0.25261,0.67479,-0.00368,-0.00076,0.73800,0.00000,0.00000,0.00000,0.00000,1,0,
07.02 17:12:16:118,16409,-0.05209,-0.05759,9.78320,0.00000,0.00000,-24685744208244365821214720.00000,0.28827,-0.04656,-0.57864,-0.34873,95.12391,0.25208,0.67478,-0.00368,-0.00076,0.73801,0.00000,0.00000,0.00000,0.00000,1,0,
07.02 17:12:16:127,16410,-0.06638,-0.07358,9.80265,0.00000,0.00000,-24685744208244365821214720.00000,0.28629,-0.04506,-0.57915,-0.34830,95.12360,0.25136,0.67478,-0.00367,-0.00076,0.73800,0.00000,0.00000,0.00000,0.00000,1,0,
07.02 17:12:16:137,16411,-0.04490,-0.06498,9.81162,0.00000,0.00000,-24685744208244365821214720.00000,0.28778,-0.04457,-0.57864,-0.34884,95.12482,0.25056,0.67478,-0.00367,-0.00077,0.73801,0.00000,0.00000,0.00000,0.00000,1,0,
07.02 17:12:16:147,16412,-0.07814,-0.09362,9.80902,0.00000,0.00000,-24685744208244365821214720.00000,0.28729,-0.04455,-0.57964,-0.34872,95.12372,0.25223,0.67478,-0.00368,-0.00076,0.73801,0.00000,0.00000,0.00000,0.00000,1,0,
07.02 17:12:16:157,16413,-0.06135,-0.06175,9.81319,0.00000,0.00000,-24685744208244365821214720.00000,0.28777,-0.04609,-0.57765,-0.34835,95.12331,0.25143,0.67479,-0.00367,-0.00076,0.73800,0.00000,0.00000,0.00000,0.00000,1,0,
07.02 17:12:16:167,16414,-0.05541,-0.07716,9.80766,0.00000,0.00000,-24685744208244365821214720.00000,0.28729,-0.04402,-0.58113,-0.34851,95.12294,0.25130,0.67479,-0.00367,-0.00076,0.73800,0.00000,0.00000,0.00000,0.00000,1,0,
07.02 17:12:16:179,16415,-0.06337,-0.09517,9.80296,0.00000,0.00000,-24685744208244365821214720.00000,0.28680,-0.04700,-0.58214,-0.34902,95.12285,0.25162,0.67479,-0.00368,-0.00077,0.73800,0.00000,0.00000,0.00000,0.00000,1,0,
07.02 17:12:16:188,16416,-0.08268,-0.07488,9.80132,0.00000,0.00000,-24685744208244365821214720.00000,0.28827,-0.04559,-0.57764,-0.34978,95.12480,0.25089,0.67478,-0.00368,-0.00078,0.73801,0.00000,0.00000,0.00000,0.00000,1,0,
07.02 17:12:16:198,16417,-0.06699,-0.08819,9.81665,0.00000,0.00000,-24685744208244365821214720.00000,0.28578,-0.04511,-0.57667,-0.34955,95.12497,0.25097,0.67478,-0.00367,-0.00077,0.73801,0.00000,0.00000,0.00000,0.00000,1,0,
07.02 17:12:16:207,16418,-0.05244,-0.08453,9.79455,0.00000,0.00000,-24685744208244365821214720.00000,0.28826,-0.04460,-0.57714,-0.34835,95.12416,0.25125,0.67478,-0.00367,-0.00076,0.73801,0.00000,0.00000,0.00000,0.00000,1,0,
07.02 17:12:16:218,16419,-0.05138,-0.07092,9.80711,0.00000,0.00000,-24685744208244365821214720.00000,0.28778,-0.04704,-0.57964,-0.34769,95.12369,0.25315,0.67478,-0.00368,-0.00075,0.73801,0.00000,0.00000,0.00000,0.00000,1,0,
07.02 17:12:16:228,16420,-0.04997,-0.08638,9.79929,0.00000,0.00000,-24685744208244365821214720.00000,0.28728,-0.04758,-0.57816,-0.34741,95.12242,0.25268,0.67479,-0.00367,-0.00075,0.73800,0.00000,0.00000,0.00000,0.00000,1,0,
07.02 17:12:16:238,16421,-0.05177,-0.08336,9.80125,0.00000,0.00000,-24685744208244365821214720.00000,0.28730,-0.04650,-0.58213,-0.34763,95.12363,0.25324,0.67478,-0.00368,-0.00075,0.73801,0.00000,0.00000,0.00000,0.00000,1,0,
07.02 17:12:16:249,16422,-0.05062,-0.07684,9.80322,0.00000,0.00000,-24685744208244365821214720.00000,0.28580,-0.04652,-0.58115,-0.34719,95.12347,0.25457,0.67479,-0.00368,-0.00074,0.73800,0.00000,0.00000,0.00000,0.00000,1,0,
07.02 17:12:16:259,16423,-0.04657,-0.07506,9.79555,0.00000,0.00000,-24685744208244365821214720.00000,0.28728,-0.04708,-0.57815,-0.34675,95.12164,0.25383,0.67480,-0.00368,-0.00074,0.73799,0.00000,0.00000,0.00000,0.00000,1,0,
07.02 17:12:16:268,16424,-0.04981,-0.09006,9.80523,0.00000,0.00000,-24685744208244365821214720.00000,0.28777,-0.04408,-0.57814,-0.34644,95.12244,0.25364,0.67479,-0.00367,-0.00074,0.73800,0.00000,0.00000,0.00000,0.00000,1,0,
07.02 17:12:16:277,16425,-0.08276,-0.07157,9.80568,0.00000,0.00000,-24685744208244365821214720.00000,0.28927,-0.04705,-0.57913,-0.34578,95.12233,0.25358,0.67479,-0.00367,-0.00073,0.73800,0.00000,0.00000,0.00000,0.00000,1,0,
07.02 17:12:16:287,16426,-0.06047,-0.08645,9.80415,0.00000,0.00000,-24685744208244365821214720.00000,0.28629,-0.04707,-0.57866,-0.34563,95.12180,0.25345,0.67480,-0.00367,-0.00073,0.73799,0.00000,0.00000,0.00000,0.00000,1,0,
07.02 17:12:16:297,16427,-0.06530,-0.07700,9.80387,0.00000,0.00000,-24685744208244365821214720.00000,0.28778,-0.04405,-0.57963,-0.34655,95.12125,0.25354,0.67480,-0.00367,-0.00074,0.73799,0.00000,0.00000,0.00000,0.00000,1,0,
07.02 17:12:16:310,16428,-0.05400,-0.09262,9.79662,0.00000,0.00000,-24685744208244365821214720.00000,0.28879,-0.04750,-0.58163,-0.34696,95.12019,0.25271,0.67481,-0.00367,-0.00075,0.73798,0.00000,0.00000,0.00000,0.00000,1,0,
07.02 17:12:16:318,16429,-0.06176,-0.08746,9.78584,0.00000,0.00000,-24685744208244365821214720.00000,0.28530,-0.04454,-0.58015,-0.34603,95.12038,0.25207,0.67481,-0.00366,-0.00074,0.73799,0.00000,0.00000,0.00000,0.00000,1,0,
07.02 17:12:16:327,16430,-0.05056,-0.09658,9.81090,0.00000,0.00000,-24685744208244365821214720.00000,0.28828,-0.04653,-0.58014,-0.34555,95.11999,0.25064,0.67481,-0.00365,-0.00075,0.73798,0.00000,0.00000,0.00000,0.00000,1,0,
07.02 17:12:16:337,16431,-0.05554,-0.08547,9.80129,0.00000,0.00000,-24685744208244365821214720.00000,0.28780,-0.04600,-0.58213,-0.34521,95.11958,0.24966,0.67481,-0.00364,-0.00075,0.73798,0.00000,0.00000,0.00000,0.00000,1,0,
07.02 17:12:16:347,16432,-0.04653,-0.06322,9.79667,0.00000,0.00000,-24685744208244365821214720.00000,0.28729,-0.04502,-0.58113,-0.34587,95.12051,0.24977,0.67480,-0.00365,-0.00076,0.73799,0.00000,0.00000,0.00000,0.00000,1,0,
07.02 17:12:16:359,16433,-0.05048,-0.08246,9.83014,0.00000,0.00000,-24685744208244365821214720.00000,0.28830,-0.04646,-0.58362,-0.34571,95.12073,0.25035,0.67480,-0.00365,-0.00075,0.73799,0.00000,0.00000,0.00000,0.00000,1,0,
07.02 17:12:16:368,16434,-0.06146,-0.05738,9.77650,0.00000,0.00000,-24685744208244365821214720.00000,0.28630,-0.04552,-0.58114,-0.34630,95.12059,0.25076,0.67480,-0.00365,-0.00075,0.73799,0.00000,0.00000,0.00000,0.00000,1,0,
07.02 17:12:16:377,16435,-0.07997,-0.08351,9.82959,0.00000,0.00000,-24685744208244365821214720.00000,0.28779,-0.04700,-0.58163,-0.34719,95.12337,0.25003,0.67479,-0.00365,-0.00076,0.73800,0.00000,0.00000,0.00000,0.00000,1,0,
07.02 17:12:16:388,16436,-0.02696,-0.05447,9.76608,0.00000,0.00000,-24685744208244365821214720.00000,0.28779,-0.04503,-0.58063,-0.34672,95.12274,0.24907,0.67479,-0.00365,-0.00077,0.73800,0.00000,0.00000,0.00000,0.00000,1,0,
07.02 17:12:16:398,16437,-0.08104,-0.07267,9.83879,0.00000,0.00000,-24685744208244365821214720.00000,0.28679,-0.04503,-0.58064,-0.34760,95.12336,0.25006,0.67479,-0.00366,-0.00077,0.73800,0.00000,0.00000,0.00000,0.00000,1,0,
07.02 17:12:16:408,16438,-0.06637,-0.07361,9.75986,0.00000,0.00000,-24685744208244365821214720.00000,0.28777,-0.04510,-0.57715,-0.34658,95.12267,0.24925,0.67479,-0.00365,-0.00076,0.73800,0.00000,0.00000,0.00000,0.00000,1,0,
07.02 17:12:16:418,16439,-0.05520,-0.07807,9.87499,0.00000,0.00000,-24685744208244365821214720.00000,0.28730,-0.04449,-0.58262,-0.34472,95.12160,0.24909,0.67480,-0.00363,-0.00075,0.73799,0.00000,0.00000,0.00000,0.00000,1,0,
07.02 17:12:16:428,16440,-0.04045,-0.06207,9.74972,0.00000,0.00000,-24685744208244365821214720.00000,0.28679,-0.04454,-0.58014,-0.34384,95.12051,0.24820,0.67481,-0.00362,-0.00075,0.73799,0.00000,0.00000,0.00000,0.00000,1,0,
07.02 17:12:16:438,16441,-0.07159,-0.09348,9.83877,0.00000,0.00000,-24685744208244365821214720.00000,0.28581,-0.04351,-0.58164,-0.34606,95.12131,0.24902,0.67480,-0.00364,-0.00076,0.73799,0.00000,0.00000,0.00000,0.00000,1,0,
07.02 17:12:16:448,16442,-0.03646,-0.06386,9.78818,0.00000,0.00000,-24685744208244365821214720.00000,0.28729,-0.04503,-0.58064,-0.34668,95.12059,0.24846,0.67480,-0.00364,-0.00077,0.73799,0.00000,0.00000,0.00000,0.00000,1,0,
07.02 17:12:16:458,16443,-0.08719,-0.08833,9.82563,0.00000,0.00000,-24685744208244365821214720.00000,0.28877,-0.04454,-0.57963,-0.34572,95.12092,0.24874,0.67480,-0.00364,-0.00076,0.73799,0.00000,0.00000,0.00000,0.00000,1,0,
07.02 17:12:16:467,16444,-0.05198,-0.07701,9.77946,0.00000,0.00000,-24685744208244365821214720.00000,0.28830,-0.04546,-0.58362,-0.34556,95.12065,0.24738,0.67480,-0.00363,-0.00077,0.73799,0.00000,0.00000,0.00000,0.00000,1,0,
07.02 17:12:16:478,16445,-0.05486,-0.07288,9.81216,0.00000,0.00000,-24685744208244365821214720.00000,0.28928,-0.04451,-0.58112,-0.34613,95.12198,0.24647,0.67480,-0.00363,-0.00078,0.73800,0.00000,0.00000,0.00000,0.00000,1,0,
07.02 17:12:16:488,16446,-0.06837,-0.08957,9.78494,0.00000,0.00000,-24685744208244365821214720.00000,0.28681,-0.04599,-0.58263,-0.34554,95.12184,0.24594,0.67480,-0.00362,-0.00078,0.73799,0.00000,0.00000,0.00000,0.00000,1,0,
07.02 17:12:16:497,16447,-0.07767,-0.06173,9.80635,0.00000,0.00000,-24685744208244365821214720.00000,0.28482,-0.04651,-0.58166,-0.34518,95.12347,0.24569,0.67479,-0.00361,-0.00078,0.73800,0.00000,0.00000,0.00000,0.00000,1,0,
07.02 17:12:16:508,16448,-0.06616,-0.08785,9.81076,0.00000,0.00000,-24685744208244365821214720.00000,0.28679,-0.04655,-0.57965,-0.34616,95.12196,0.24538,0.67480,-0.00362,-0.00078,0.73800,0.00000,0.00000,0.00000,0.00000,1,0,
07.02 17:12:16:517,16449,-0.05548,-0.07780,9.81074,0.00000,0.00000,-24685744208244365821214720.00000,0.28780,-0.04649,-0.58213,-0.34693,95.12118,0.24492,0.67480,-0.00362,-0.00079,0.73799,0.00000,0.00000,0.00000,0.00000,1,0,
07.02 17:12:16:528,16450,-0.06091,-0.07896,9.81112,0.00000,0.00000,-24685744208244365821214720.00000,0.28629,-0.04558,-0.57816,-0.34795,95.12228,0.24495,0.67479,-0.00363,-0.00080,0.73800,0.00000,0.00000,0.00000,0.00000,1,0,
07.02 17:12:16:537,16451,-0.04842,-0.05878,9.81794,0.00000,0.00000,-24685744208244365821214720.00000,0.28828,-0.04454,-0.58013,-0.34775,95.12218,0.24424,0.67479,-0.00362,-0.00080,0.73800,0.00000,0.00000,0.00000,0.00000,1,0,
07.02 17:12:16:548,16452,-0.05169,-0.08163,9.82115,0.00000,0.00000,-24685744208244365821214720.00000,0.28731,-0.04497,-0.58362,-0.34864,95.12199,0.24470,0.67480,-0.00363,-0.00080,0.73800,0.00000,0.00000,0.00000,0.00000,1,0,
07.02 17:12:16:559,16453,-0.05920,-0.07962,9.80110,0.00000,0.00000,-24685744208244365821214720.00000,0.28977,-0.04651,-0.58112,-0.34874,95.12400,0.24474,0.67478,-0.00363,-0.00080,0.73801,0.00000,0.00000,0.00000,0.00000,1,0,
07.02 17:12:16:569,16454,-0.04739,-0.10604,9.79135,0.00000,0.00000,-24685744208244365821214720.00000,0.28978,-0.04550,-0.58161,-0.34738,95.12321,0.24366,0.67479,-0.00361,-0.00080,0.73800,0.00000,0.00000,0.00000,0.00000,1,0,
07.02 17:12:16:578,16455,-0.06497,-0.09063,9.81341,0.00000,0.00000,-24685744208244365821214720.00000,0.28728,-0.04358,-0.57814,-0.34774,95.12247,0.24275,0.67479,-0.00361,-0.00081,0.73800,0.00000,0.00000,0.00000,0.00000,1,0,
07.02 17:12:16:587,16456,-0.05751,-0.07704,9.80799,0.00000,0.00000,-24685744208244365821214720.00000,0.28780,-0.04648,-0.58263,-0.34688,95.12172,0.24204,0.67480,-0.00360,-0.00081,0.73799,0.00000,0.00000,0.00000,0.00000,1,0,
07.02 17:12:16:597,16457,-0.06237,-0.08507,9.80647,0.00000,0.00000,-24685744208244365821214720.00000,0.28778,-0.04504,-0.58013,-0.34760,95.12215,0.24299,0.67479,-0.00361,-0.00081,0.73800,0.00000,0.00000,0.00000,0.00000,1,0,
07.02 17:12:16:609,16458,-0.03804,-0.07922,9.78992,0.00000,0.00000,-24685744208244365821214720.00000,0.28777,-0.04559,-0.57765,-0.34627,95.12299,0.24267,0.67479,-0.00360,-0.00080,0.73800,0.00000,0.00000,0.00000,0.00000,1,0,
07.02 17:12:16:618,16459,-0.05921,-0.09776,9.82211,0.00000,0.00000,-24685744208244365821214720.00000,0.28731,-0.04545,-0.58462,-0.34558,95.12350,0.24252,0.67479,-0.00360,-0.00080,0.73800,0.00000,0.00000,0.00000,0.00000,1,0,
07.02 17:12:16:628,16460,-0.06967,-0.08299,9.78854,0.00000,0.00000,-24685744208244365821214720.00000,0.29027,-0.04252,-0.58060,-0.34623,95.12292,0.24287,0.67479,-0.00360,-0.00080,0.73800,0.00000,0.00000,0.00000,0.00000,1,0,
07.02 17:12:16:637,16461,-0.06662,-0.07268,9.80704,0.00000,0.00000,-24685744208244365821214720.00000,0.28828,-0.04652,-0.58063,-0.34732,95.12406,0.24250,0.67478,-0.00361,-0.00081,0.73801,0.00000,0.00000,0.00000,0.00000,1,0,
07.02 17:12:16:649,16462,-0.07075,-0.07796,9.81374,0.00000,0.00000,-24685744208244365821214720.00000,0.28582,-0.04646,-0.58414,-0.34701,95.12508,0.24216,0.67478,-0.00360,-0.00081,0.73801,0.00000,0.00000,0.00000,0.00000,1,0,
07.02 17:12:16:659,16463,-0.07222,-0.08410,9.79974,0.00000,0.00000,-24685744208244365821214720.00000,0.28827,-0.04508,-0.57814,-0.34707,95.12417,0.24239,0.67478,-0.00360,-0.00081,0.73801,0.00000,0.00000,0.00000,0.00000,1,0,
07.02 17:12:16:668,16464,-0.07315,-0.08862,9.80714,0.00000,0.00000,-24685744208244365821214720.00000,0.28630,-0.04604,-0.58015,-0.34652,95.12328,0.24207,0.67479,-0.00360,-0.00081,0.73800,0.00000,0.00000,0.00000,0.00000,1,0,
07.02 17:12:16:678,16465,-0.07000,-0.10229,9.80873,0.00000,0.00000,-24685744208244365821214720.00000,0.28679,-0.04804,-0.58015,-0.34661,95.12341,0.24168,0.67479,-0.00360,-0.00081,0.73800,0.00000,0.00000,0.00000,0.00000,1,0,
07.02 17:12:16:687,16466,-0.04023,-0.08835,9.78312,0.00000,0.00000,-24685744208244365821214720.00000,0.28729,-0.04553,-0.58064,-0.34878,95.12533,0.24159,0.67477,-0.00361,-0.00082,0.73802,0.00000,0.00000,0.00000,0.00000,1,0,
07.02 17:12:16:698,16467,-0.03512,-0.08774,9.81016,0.00000,0.00000,-24685744208244365821214720.00000,0.28482,-0.04751,-0.58166,-0.34816,95.12580,0.24072,0.67477,-0.00360,-0.00082,0.73802,0.00000,0.00000,0.00000,0.00000,1,0,
07.02 17:12:16:709,16468,-0.04285,-0.07770,9.80680,0.00000,0.00000,-24685744208244365821214720.00000,0.28778,-0.04654,-0.58014,-0.34932,95.12880,0.23990,0.67475,-0.00360,-0.00084,0.73804,0.00000,0.00000,0.00000,0.00000,1,0,
07.02 17:12:16:717,16469,-0.06993,-0.10216,9.79970,0.00000,0.00000,-24685744208244365821214720.00000,0.28580,-0.04602,-0.58115,-0.35101,95.12897,0.23981,0.67475,-0.00361,-0.00085,0.73804,0.00000,0.00000,0.00000,0.00000,1,0,
07.02 17:12:16:728,16470,-0.04767,-0.07590,9.78818,0.00000,0.00000,-24685744208244365821214720.00000,0.28678,-0.04458,-0.57815,-0.34876,95.12745,0.23906,0.67476,-0.00359,-0.00084,0.73803,0.00000,0.00000,0.00000,0.00000,1,0,
07.02 17:12:16:738,16471,-0.05281,-0.06410,9.81269,0.00000,0.00000,-24685744208244365821214720.00000,0.28579,-0.04406,-0.57915,-0.34875,95.12782,0.23971,0.67476,-0.00360,-0.00083,0.73803,0.00000,0.00000,0.00000,0.00000,1,0,
07.02 17:12:16:747,16472,-0.03927,-0.07395,9.79204,0.00000,0.00000,-24685744208244365821214720.00000,0.28531,-0.04353,-0.58114,-0.34767,95.12772,0.23982,0.67476,-0.00359,-0.00083,0.73803,0.00000,0.00000,0.00000,0.00000,1,0,
07.02 17:12:16:758,16473,-0.07803,-0.08135,9.78680,0.00000,0.00000,-24685744208244365821214720.00000,0.28778,-0.04506,-0.57914,-0.34856,95.12659,0.23906,0.67477,-0.00359,-0.00084,0.73802,0.00000,0.00000,0.00000,0.00000,1,0,
07.02 17:12:16:767,16474,-0.02638,-0.10365,9.80487,0.00000,0.00000,-24685744208244365821214720.00000,0.28680,-0.04452,-0.58114,-0.34836,95.12537,0.23746,0.67477,-0.00358,-0.00085,0.73802,0.00000,0.00000,0.00000,0.00000,1,0,
07.02 17:12:16:778,16475,-0.05702,-0.07517,9.80017,0.00000,0.00000,-24685744208244365821214720.00000,0.28678,-0.04507,-0.57865,-0.34841,95.12548,0.23787,0.67477,-0.00358,-0.00084,0.73802,0.00000,0.00000,0.00000,0.00000,1,0,
07.02 17:12:16:788,16476,-0.07462,-0.08960,9.77385,0.00000,0.00000,-24685744208244365821214720.00000,0.28631,-0.04649,-0.58264,-0.34684,95.12520,0.23882,0.67478,-0.00358,-0.00083,0.73801,0.00000,0.00000,0.00000,0.00000,1,0,
07.02 17:12:16:798,16477,-0.06629,-0.09433,9.84590,0.00000,0.00000,-24685744208244365821214720.00000,0.28629,-0.04405,-0.57964,-0.34742,95.12579,0.23778,0.67477,-0.00358,-0.00084,0.73802,0.00000,0.00000,0.00000,0.00000,1,0,
07.02 17:12:16:810,16478,-0.04868,-0.07489,9.80780,0.00000,0.00000,-24685744208244365821214720.00000,0.28926,-0.04356,-0.57862,-0.34808,95.12565,0.23694,0.67477,-0.00358,-0.00085,0.73802,0.00000,0.00000,0.00000,0.00000,1,0,
07.02 17:12:16:818,16479,-0.06859,-0.06548,9.77519,0.00000,0.00000,-24685744208244365821214720.00000,0.28629,-0.04505,-0.57965,-0.34839,95.12569,0.23763,0.67477,-0.00358,-0.00084,0.73802,0.00000,0.00000,0.00000,0.00000,1,0,
07.02 17:12:16:828,16480,-0.07299,-0.08609,9.83360,0.00000,0.00000,-24685744208244365821214720.00000,0.28827,-0.04657,-0.57814,-0.34862,95.12498,0.23701,0.67478,-0.00358,-0.00085,0.73801,0.00000,0.00000,0.00000,0.00000,1,0,
07.02 17:12:16:838,16481,-0.04575,-0.05526,9.78136,0.00000,0.00000,-24685744208244365821214720.00000,0.28779,-0.04401,-0.58162,-0.34794,95.12510,0.23583,0.67478,-0.00357,-0.00085,0.73801,0.00000,0.00000,0.00000,0.00000,1,0,
07.02 17:12:16:848,16482,-0.04123,-0.08904,9.81056,0.00000,0.00000,-24685744208244365821214720.00000,0.28482,-0.04550,-0.58215,-0.35068,95.12659,0.23602,0.67477,-0.00359,-0.00087,0.73802,0.00000,0.00000,0.00000,0.00000,1,0,
07.02 17:12:16:858,16483,-0.05903,-0.06446,9.81319,0.00000,0.00000,-24685744208244365821214720.00000,0.28928,-0.04549,-0.58211,-0.35166,95.12502,0.23428,0.67478,-0.00358,-0.00089,0.73801,0.00000,0.00000,0.00000,0.00000,1,0,
07.02 17:12:16:868,16484,-0.05760,-0.10344,9.81462,0.00000,0.00000,-24685744208244365821214720.00000,0.28581,-0.04400,-0.58214,-0.35068,95.12524,0.23386,0.67477,-0.00357,-0.00088,0.73801,0.00000,0.00000,0.00000,0.00000,1,0,
07.02 17:12:16:879,16485,-0.07296,-0.08823,9.80289,0.00000,0.00000,-24685744208244365821214720.00000,0.28829,-0.04651,-0.58113,-0.35078,95.12499,0.23381,0.67478,-0.00357,-0.00088,0.73801,0.00000,0.00000,0.00000,0.00000,1,0,
07.02 17:12:16:888,16486,-0.04603,-0.09259,9.79676,0.00000,0.00000,-24685744208244365821214720.00000,0.28629,-0.04556,-0.57915,-0.35090,95.12595,0.23371,0.67477,-0.00357,-0.00088,0.73802,0.00000,0.00000,0.00000,0.00000,1,0,
07.02 17:12:16:897,16487,-0.03746,-0.07567,9.82990,0.00000,0.00000,-24685744208244365821214720.00000,0.28580,-0.04455,-0.57965,-0.35122,95.12582,0.23190,0.67477,-0.00356,-0.00090,0.73802,0.00000,0.00000,0.00000,0.00000,1,0,
07.02 17:12:16:909,16488,-0.06248,-0.07505,9.79776,0.00000,0.00000,-24685744208244365821214720.00000,0.28928,-0.04501,-0.58112,-0.35117,95.12672,0.23216,0.67477,-0.00356,-0.00089,0.73802,0.00000,0.00000,0.00000,0.00000,1,0,
07.02 17:12:16:918,16489,-0.06969,-0.07044,9.81548,0.00000,0.00000,-24685744208244365821214720.00000,0.28730,-0.04498,-0.58312,-0.35110,95.12731,0.23157,0.67476,-0.00356,-0.00090,0.73803,0.00000,0.00000,0.00000,0.00000,1,0,
07.02 17:12:16:927,16490,-0.05176,-0.06450,9.81944,0.00000,0.00000,-24685744208244365821214720.00000,0.28879,-0.04599,-0.58212,-0.35154,95.12794,0.23018,0.67476,-0.00355,-0.00091,0.73803,0.00000,0.00000,0.00000,0.00000,1,0,
07.02 17:12:16:938,16491,-0.06113,-0.07614,9.81720,0.00000,0.00000,-24685744208244365821214720.00000,0.28879,-0.04647,-0.58312,-0.35283,95.12755,0.22983,0.67476,-0.00356,-0.00092,0.73803,0.00000,0.00000,0.00000,0.00000,1,0,
07.02 17:12:16:947,16492,-0.06514,-0.07978,9.79533,0.00000,0.00000,-24685744208244365821214720.00000,0.28729,-0.04502,-0.58113,-0.35389,95.12689,0.22982,0.67476,-0.00356,-0.00093,0.73802,0.00000,0.00000,0.00000,0.00000,1,0,
07.02 17:12:16:958,16493,-0.05544,-0.08020,9.82392,0.00000,0.00000,-24685744208244365821214720.00000,0.29028,-0.04298,-0.58260,-0.35492,95.12830,0.22942,0.67476,-0.00357,-0.00093,0.73803,0.00000,0.00000,0.00000,0.00000,1,0,
07.02 17:12:16:967,16494,-0.03732,-0.07204,9.78394,0.00000,0.00000,-24685744208244365821214720.00000,0.28531,-0.04652,-0.58115,-0.35555,95.12774,0.23083,0.67476,-0.00358,-0.00093,0.73803,0.00000,0.00000,0.00000,0.00000,1,0,
07.02 17:12:16:978,16495,-0.06603,-0.10130,9.80163,0.00000,0.00000,-24685744208244365821214720.00000,0.28729,-0.04404,-0.58013,-0.35575,95.12733,0.22944,0.67476,-0.00357,-0.00094,0.73803,0.00000,0.00000,0.00000,0.00000,1,0,
07.02 17:12:16:987,16496,-0.05191,-0.08809,9.81357,0.00000,0.00000,-24685744208244365821214720.00000,0.28828,-0.04554,-0.58013,-0.35607,95.12756,0.22901,0.67476,-0.00357,-0.00094,0.73803,0.00000,0.00000,0.00000,0.00000,1,0,
07.02 17:12:16:997,16497,-0.06938,-0.06409,9.79564,0.00000,0.00000,-24685744208244365821214720.00000,0.28729,-0.04353,-0.58063,-0.35624,95.12767,0.22860,0.67476,-0.00357,-0.00095,0.73803,0.00000,0.00000,0.00000,0.00000,1,0,
07.02 17:12:17:008,16498,-0.06521,-0.06670,9.78806,0.00000,0.00000,-24685744208244365821214720.00000,0.28881,-0.04539,-0.58710,-0.35719,95.12763,0.22869,0.67476,-0.00358,-0.00095,0.73803,0.00000,0.00000,0.00000,0.00000,1,0,
07.02 17:12:17:017,16499,-0.05951,-0.08247,9.81062,0.00000,0.00000,-24685744208244365821214720.00000,0.28629,-0.04605,-0.57965,-0.35711,95.12669,0.22800,0.67477,-0.00357,-0.00096,0.73802,0.00000,0.00000,0.00000,0.00000,1,0,
07.02 17:12:17:028,16500,-0.06733,-0.08924,9.81283,0.00000,0.00000,-24685744208244365821214720.00000,0.28928,-0.04649,-0.58212,-0.35687,95.12703,0.22716,0.67476,-0.00356,-0.00096,0.73802,0.00000,0.00000,0.00000,0.00000,1,0,
07.02 17:12:17:038,16501,-0.04123,-0.07042,9.80575,0.00000,0.00000,-24685744208244365821214720.00000,0.28828,-0.04453,-0.58063,-0.35578,95.12657,0.22754,0.67477,-0.00356,-0.00095,0.73802,0.00000,0.00000,0.00000,0.00000,1,0,
07.02 17:12:17:047,16502,-0.02793,-0.08012,9.81970,0.00000,0.00000,-24685744208244365821214720.00000,0.28828,-0.04603,-0.58013,-0.35642,95.12701,0.22696,0.67476,-0.00356,-0.00096,0.73802,0.00000,0.00000,0.00000,0.00000,1,0,
07.02 17:12:17:061,16503,-0.05166,-0.07541,9.79104,0.00000,0.00000,-24685744208244365821214720.00000,0.28581,-0.04449,-0.58264,-0.35829,95.12866,0.22760,0.67475,-0.00358,-0.00097,0.73803,0.00000,0.00000,0.00000,0.00000,1,0,
07.02 17:12:17:068,16504,-0.06101,-0.08134,9.79750,0.00000,0.00000,-24685744208244365821214720.00000,0.28630,-0.04702,-0.58115,-0.35840,95.12849,0.22785,0.67475,-0.00358,-0.00097,0.73803,0.00000,0.00000,0.00000,0.00000,1,0,
07.02 17:12:17:078,16505,-0.05662,-0.09059,9.80408,0.00000,0.00000,-24685744208244365821214720.00000,0.28928,-0.04500,-0.58161,-0.35801,95.12754,0.22735,0.67476,-0.00357,-0.00097,0.73803,0.00000,0.00000,0.00000,0.00000,1,0,
07.02 17:12:17:088,16506,-0.06830,-0.08958,9.81357,0.00000,0.00000,-24685744208244365821214720.00000,0.28732,-0.04493,-0.58561,-0.35806,95.12794,0.22723,0.67476,-0.00357,-0.00097,0.73803,0.00000,0.00000,0.00000,0.00000,1,0,
07.02 17:12:17:098,16507,-0.06284,-0.10042,9.78875,0.00000,0.00000,-24685744208244365821214720.00000,0.28581,-0.04700,-0.58215,-0.35910,95.12868,0.22746,0.67475,-0.00358,-0.00097,0.73803,0.00000,0.00000,0.00000,0.00000,1,0,
07.02 17:12:17:109,16508,-0.03390,-0.07760,9.80411,0.00000,0.00000,-24685744208244365821214720.00000,0.28729,-0.04552,-0.58114,-0.35920,95.13067,0.22676,0.67474,-0.00358,-0.00098,0.73805,0.00000,0.00000,0.00000,0.00000,1,0,
07.02 17:12:17:118,16509,-0.04266,-0.07370,9.79319,0.00000,0.00000,-24685744208244365821214720.00000,0.28630,-0.04551,-0.58164,-0.35886,95.13046,0.22741,0.67474,-0.00358,-0.00097,0.73805,0.00000,0.00000,0.00000,0.00000,1,0,
07.02 17:12:17:128,16510,-0.04438,-0.08666,9.80575,0.00000,0.00000,-24685744208244365821214720.00000,0.28780,-0.04548,-0.58312,-0.35782,95.12888,0.22667,0.67475,-0.00357,-0.00097,0.73804,0.00000,0.00000,0.00000,0.00000,1,0,
07.02 17:12:17:138,16511,-0.05529,-0.05627,9.80415,0.00000,0.00000,-24685744208244365821214720.00000,0.28878,-0.04553,-0.58013,-0.35979,95.12945,0.22644,0.67475,-0.00358,-0.00098,0.73804,0.00000,0.00000,0.00000,0.00000,1,0,
07.02 17:12:17:148,16512,-0.06747,-0.08537,9.80716,0.00000,0.00000,-24685744208244365821214720.00000,0.28878,-0.04500,-0.58162,-0.36026,95.12992,0.22742,0.67474,-0.00359,-0.00098,0.73804,0.00000,0.00000,0.00000,0.00000,1,0,
07.02 17:12:17:158,16513,-0.06633,-0.08566,9.79328,0.00000,0.00000,-24685744208244365821214720.00000,0.28879,-0.04350,-0.58211,-0.36030,95.12963,0.22745,0.67475,-0.00359,-0.00098,0.73804,0.00000,0.00000,0.00000,0.00000,1,0,
07.02 17:12:17:168,16514,-0.08529,-0.06574,9.80482,0.00000,0.00000,-24685744208244365821214720.00000,0.28730,-0.04449,-0.58262,-0.36014,95.12843,0.22706,0.67475,-0.00358,-0.00098,0.73803,0.00000,0.00000,0.00000,0.00000,1,0,
07.02 17:12:17:178,16515,-0.06459,-0.09386,9.78839,0.00000,0.00000,-24685744208244365821214720.00000,0.28878,-0.04203,-0.58061,-0.36040,95.12860,0.22631,0.67475,-0.00358,-0.00099,0.73803,0.00000,0.00000,0.00000,0.00000,1,0,
07.02 17:12:17:187,16516,-0.04889,-0.08724,9.80730,0.00000,0.00000,-24685744208244365821214720.00000,0.28630,-0.04503,-0.58064,-0.36231,95.13091,0.22657,0.67474,-0.00359,-0.00100,0.73805,0.00000,0.00000,0.00000,0.00000,1,0,
07.02 17:12:17:198,16517,-0.05216,-0.08188,9.82056,0.00000,0.00000,-24685744208244365821214720.00000,0.28679,-0.04653,-0.58064,-0.36232,95.13195,0.22584,0.67473,-0.00359,-0.00100,0.73805,0.00000,0.00000,0.00000,0.00000,1,0,
07.02 17:12:17:208,16518,-0.05488,-0.06305,9.80227,0.00000,0.00000,-24685744208244365821214720.00000,0.28778,-0.04654,-0.58014,-0.36097,95.13212,0.22570,0.67473,-0.00358,-0.00100,0.73805,0.00000,0.00000,0.00000,0.00000,1,0,
07.02 17:12:17:218,16519,-0.06240,-0.06353,9.80220,0.00000,0.00000,-24685744208244365821214720.00000,0.28630,-0.04503,-0.58064,-0.36025,95.13273,0.22620,0.67473,-0.00358,-0.00099,0.73806,0.00000,0.00000,0.00000,0.00000,1,0,
07.02 17:12:17:228,16520,-0.08317,-0.08693,9.81476,0.00000,0.00000,-24685744208244365821214720.00000,0.28879,-0.04547,-0.58311,-0.36015,95.13158,0.22572,0.67473,-0.00357,-0.00099,0.73805,0.00000,0.00000,0.00000,0.00000,1,0,
07.02 17:12:17:238,16521,-0.04879,-0.09826,9.78854,0.00000,0.00000,-24685744208244365821214720.00000,0.28680,-0.04701,-0.58164,-0.35866,95.13133,0.22575,0.67474,-0.00357,-0.00098,0.73805,0.00000,0.00000,0.00000,0.00000,1,0,
07.02 17:12:17:247,16522,-0.07821,-0.07680,9.81705,0.00000,0.00000,-24685744208244365821214720.00000,0.28778,-0.04457,-0.57864,-0.35912,95.13238,0.22697,0.67473,-0.00358,-0.00098,0.73806,0.00000,0.00000,0.00000,0.00000,1,0,
07.02 17:12:17:258,16523,-0.03248,-0.07555,9.79211,0.00000,0.00000,-24685744208244365821214720.00000,0.28829,-0.04352,-0.58112,-0.35951,95.13264,0.22590,0.67473,-0.00357,-0.00099,0.73806,0.00000,0.00000,0.00000,0.00000,1,0,
07.02 17:12:17:267,16524,-0.04060,-0.08650,9.81398,0.00000,0.00000,-24685744208244365821214720.00000,0.28880,-0.04695,-0.58411,-0.35895,95.13294,0.22552,0.67473,-0.00357,-0.00098,0.73806,0.00000,0.00000,0.00000,0.00000,1,0,
07.02 17:12:17:277,16525,-0.04837,-0.07286,9.77247,0.00000,0.00000,-24685744208244365821214720.00000,0.28977,-0.04454,-0.57962,-0.36075,95.13219,0.22518,0.67473,-0.00357,-0.00100,0.73806,0.00000,0.00000,0.00000,0.00000,1,0,
07.02 17:12:17:287,16526,-0.06541,-0.07513,9.85227,0.00000,0.00000,-24685744208244365821214720.00000,0.28829,-0.04352,-0.58112,-0.36122,95.13408,0.22650,0.67472,-0.00359,-0.00099,0.73807,0.00000,0.00000,0.00000,0.00000,1,0,
07.02 17:12:17:297,16527,-0.06145,-0.06875,9.79197,0.00000,0.00000,-24685744208244365821214720.00000,0.28878,-0.04354,-0.58012,-0.36225,95.13410,0.22718,0.67472,-0.00360,-0.00100,0.73807,0.00000,0.00000,0.00000,0.00000,1,0,
07.02 17:12:17:308,16528,-0.09106,-0.08585,9.84507,0.00000,0.00000,-24685744208244365821214720.00000,0.28779,-0.04701,-0.58114,-0.36377,95.13496,0.22718,0.67471,-0.00361,-0.00101,0.73807,0.00000,0.00000,0.00000,0.00000,1,0,
07.02 17:12:17:318,16529,-0.06304,-0.07751,9.76584,0.00000,0.00000,-24685744208244365821214720.00000,0.28779,-0.04552,-0.58113,-0.36417,95.13514,0.22674,0.67471,-0.00360,-0.00101,0.73807,0.00000,0.00000,0.00000,0.00000,1,0,
07.02 17:12:17:328,16530,-0.04515,-0.10037,9.82988,0.00000,0.00000,-24685744208244365821214720.00000,0.28878,-0.04601,-0.58113,-0.36464,95.13541,0.22512,0.67471,-0.00360,-0.00102,0.73807,0.00000,0.00000,0.00000,0.00000,1,0,
07.02 17:12:17:339,16531,-0.04771,-0.05056,9.80706,0.00000,0.00000,-24685744208244365821214720.00000,0.28779,-0.04701,-0.58114,-0.36573,95.13601,0.22585,0.67471,-0.00361,-0.00103,0.73808,0.00000,0.00000,0.00000,0.00000,1,0,
07.02 17:12:17:348,16532,-0.05208,-0.06177,9.79421,0.00000,0.00000,-24685744208244365821214720.00000,0.28679,-0.04556,-0.57915,-0.36562,95.13590,0.22606,0.67471,-0.00361,-0.00102,0.73808,0.00000,0.00000,0.00000,0.00000,1,0,
07.02 17:12:17:360,16533,-0.06519,-0.07993,9.83002,0.00000,0.00000,-24685744208244365821214720.00000,0.28828,-0.04654,-0.57964,-0.36620,95.13678,0.22584,0.67470,-0.00361,-0.00103,0.73808,0.00000,0.00000,0.00000,0.00000,1,0,
07.02 17:12:17:368,16534,-0.04233,-0.07877,9.80125,0.00000,0.00000,-24685744208244365821214720.00000,0.28431,-0.04607,-0.57917,-0.36437,95.13673,0.22573,0.67470,-0.00360,-0.00102,0.73808,0.00000,0.00000,0.00000,0.00000,1,0,
07.02 17:12:17:378,16535,-0.07793,-0.10691,9.80256,0.00000,0.00000,-24685744208244365821214720.00000,0.28879,-0.04599,-0.58212,-0.36452,95.13631,0.22714,0.67470,-0.00361,-0.00101,0.73808,0.00000,0.00000,0.00000,0.00000,1,0,
07.02 17:12:17:388,16536,-0.08053,-0.11377,9.82955,0.00000,0.00000,-24685744208244365821214720.00000,0.28779,-0.04601,-0.58163,-0.36367,95.13535,0.22638,0.67471,-0.00360,-0.00101,0.73807,0.00000,0.00000,0.00000,0.00000,1,0,
07.02 17:12:17:398,16537,-0.04476,-0.09095,9.79023,0.00000,0.00000,-24685744208244365821214720.00000,0.28530,-0.04556,-0.57916,-0.36289,95.13390,0.22598,0.67472,-0.00359,-0.00101,0.73807,0.00000,0.00000,0.00000,0.00000,1,0,
07.02 17:12:17:408,16538,-0.06421,-0.09124,9.80465,0.00000,0.00000,-24685744208244365821214720.00000,0.28780,-0.04647,-0.58313,-0.36347,95.13505,0.22540,0.67471,-0.00359,-0.00101,0.73807,0.00000,0.00000,0.00000,0.00000,1,0,
07.02 17:12:17:418,16539,-0.03650,-0.08055,9.78844,0.00000,0.00000,-24685744208244365821214720.00000,0.28630,-0.04503,-0.58064,-0.36293,95.13499,0.22361,0.67471,-0.00358,-0.00102,0.73807,0.00000,0.00000,0.00000,0.00000,1,0,
07.02 17:12:17:428,16540,-0.03087,-0.09387,9.81929,0.00000,0.00000,-24685744208244365821214720.00000,0.28779,-0.04452,-0.58113,-0.36224,95.13414,0.22500,0.67472,-0.00358,-0.00101,0.73807,0.00000,0.00000,0.00000,0.00000,1,0,
07.02 17:12:17:438,16541,-0.08536,-0.05273,9.78773,0.00000,0.00000,-24685744208244365821214720.00000,0.28729,-0.04652,-0.58114,-0.36198,95.13471,0.22580,0.67471,-0.00359,-0.00100,0.73807,0.00000,0.00000,0.00000,0.00000,1,0,
07.02 17:12:17:452,16542,-0.08591,-0.08051,9.83954,0.00000,0.00000,-24685744208244365821214720.00000,0.28679,-0.04656,-0.57915,-0.36057,95.13589,0.22558,0.67471,-0.00358,-0.00099,0.73808,0.00000,0.00000,0.00000,0.00000,1,0,
07.02 17:12:17:458,16543,-0.04395,-0.06035,9.81965,0.00000,0.00000,-24685744208244365821214720.00000,0.28630,-0.04454,-0.58014,-0.36036,95.13386,0.22480,0.67472,-0.00357,-0.00100,0.73807,0.00000,0.00000,0.00000,0.00000,1,0,
07.02 17:12:17:470,16544,-0.06512,-0.08458,9.78935,0.00000,0.00000,-24685744208244365821214720.00000,0.28679,-0.04403,-0.58064,-0.36071,95.13580,0.22527,0.67471,-0.00357,-0.00100,0.73808,0.00000,0.00000,0.00000,0.00000,1,0,
07.02 17:12:17:483,16545,-0.07523,-0.08391,9.81309,0.00000,0.00000,-24685744208244365821214720.00000,0.28679,-0.04404,-0.58014,-0.36194,95.13562,0.22460,0.67471,-0.00358,-0.00101,0.73808,0.00000,0.00000,0.00000,0.00000,1,0,
07.02 17:12:17:487,16546,-0.04797,-0.06948,9.80906,0.00000,0.00000,-24685744208244365821214720.00000,0.28779,-0.04552,-0.58113,-0.36218,95.13437,0.22323,0.67472,-0.00357,-0.00102,0.73807,0.00000,0.00000,0.00000,0.00000,1,0,
07.02 17:12:17:497,16547,-0.05670,-0.08068,9.77752,0.00000,0.00000,-24685744208244365821214720.00000,0.28730,-0.04449,-0.58262,-0.36299,95.13534,0.22393,0.67471,-0.00358,-0.00102,0.73807,0.00000,0.00000,0.00000,0.00000,1,0,
07.02 17:12:17:507,16548,-0.06406,-0.07078,9.78436,0.00000,0.00000,-24685744208244365821214720.00000,0.28580,-0.04355,-0.57965,-0.36240,95.13489,0.22326,0.67471,-0.00357,-0.00102,0.73807,0.00000,0.00000,0.00000,0.00000,1,0,
07.02 17:12:17:522,16549,-0.04081,-0.08399,9.82573,0.00000,0.00000,-24685744208244365821214720.00000,0.28630,-0.04453,-0.58064,-0.36245,95.13449,0.22289,0.67472,-0.00357,-0.00102,0.73807,0.00000,0.00000,0.00000,0.00000,1,0,
07.02 17:12:17:528,16550,-0.07127,-0.09365,9.81452,0.00000,0.00000,-24685744208244365821214720.00000,0.28829,-0.04649,-0.58213,-0.36231,95.13600,0.22338,0.67471,-0.00357,-0.00102,0.73808,0.00000,0.00000,0.00000,0.00000,1,0,
07.02 17:12:17:538,16551,-0.07175,-0.09918,9.81183,0.00000,0.00000,-24685744208244365821214720.00000,0.28482,-0.04501,-0.58215,-0.36207,95.13638,0.22392,0.67470,-0.00357,-0.00101,0.73808,0.00000,0.00000,0.00000,0.00000,1,0,
07.02 17:12:17:548,16552,-0.06178,-0.07876,9.82418,0.00000,0.00000,-24685744208244365821214720.00000,0.28779,-0.04503,-0.58063,-0.36232,95.13707,0.22259,0.67470,-0.00357,-0.00102,0.73808,0.00000,0.00000,0.00000,0.00000,1,0,
07.02 17:12:17:560,16553,-0.04644,-0.07916,9.80499,0.00000,0.00000,-24685744208244365821214720.00000,0.29026,-0.04404,-0.57961,-0.36192,95.13655,0.22251,0.67470,-0.00356,-0.00102,0.73808,0.00000,0.00000,0.00000,0.00000,1,0,
07.02 17:12:17:568,16554,-0.06479,-0.08844,9.79419,0.00000,0.00000,-24685744208244365821214720.00000,0.28828,-0.04453,-0.58063,-0.36225,95.13631,0.22336,0.67470,-0.00357,-0.00102,0.73808,0.00000,0.00000,0.00000,0.00000,1,0,
07.02 17:12:17:578,16555,-0.04403,-0.06015,9.80296,0.00000,0.00000,-24685744208244365821214720.00000,0.28830,-0.04498,-0.58312,-0.36090,95.13552,0.22315,0.67471,-0.00356,-0.00101,0.73807,0.00000,0.00000,0.00000,0.00000,1,0,
07.02 17:12:17:588,16556,-0.04489,-0.06013,9.80840,0.00000,0.00000,-24685744208244365821214720.00000,0.28679,-0.04403,-0.58064,-0.36068,95.13572,0.22430,0.67471,-0.00357,-0.00100,0.73808,0.00000,0.00000,0.00000,0.00000,1,0,
07.02 17:12:17:599,16557,-0.06751,-0.08100,9.80051,0.00000,0.00000,-24685744208244365821214720.00000,0.28878,-0.04353,-0.58062,-0.36240,95.13469,0.22428,0.67471,-0.00358,-0.00101,0.73807,0.00000,0.00000,0.00000,0.00000,1,0,
07.02 17:12:17:609,16558,-0.04904,-0.07878,9.79543,0.00000,0.00000,-24685744208244365821214720.00000,0.28730,-0.04451,-0.58163,-0.36411,95.13547,0.22404,0.67471,-0.00359,-0.00103,0.73807,0.00000,0.00000,0.00000,0.00000,1,0,
07.02 17:12:17:618,16559,-0.06177,-0.08360,9.80513,0.00000,0.00000,-24685744208244365821214720.00000,0.28531,-0.04601,-0.58165,-0.36332,95.13640,0.22467,0.67470,-0.00359,-0.00102,0.73808,0.00000,0.00000,0.00000,0.00000,1,0,
07.02 17:12:17:628,16560,-0.07937,-0.07269,9.80275,0.00000,0.00000,-24685744208244365821214720.00000,0.28878,-0.04503,-0.58013,-0.36269,95.13689,0.22621,0.67470,-0.00359,-0.00100,0.73808,0.00000,0.00000,0.00000,0.00000,1,0,
07.02 17:12:17:637,16561,-0.04394,-0.09069,9.82437,0.00000,0.00000,-24685744208244365821214720.00000,0.28878,-0.04852,-0.58064,-0.36292,95.13661,0.22468,0.67470,-0.00358,-0.00101,0.73808,0.00000,0.00000,0.00000,0.00000,1,0,
07.02 17:12:17:647,16562,-0.04135,-0.07513,9.79884,0.00000,0.00000,-24685744208244365821214720.00000,0.28779,-0.04400,-0.58212,-0.36310,95.13560,0.22321,0.67471,-0.00358,-0.00102,0.73808,0.00000,0.00000,0.00000,0.00000,1,0,
07.02 17:12:17:658,16563,-0.04953,-0.08340,9.78527,0.00000,0.00000,-24685744208244365821214720.00000,0.28777,-0.04608,-0.57815,-0.36214,95.13593,0.22320,0.67471,-0.00357,-0.00102,0.73808,0.00000,0.00000,0.00000,0.00000,1,0,
07.02 17:12:17:668,16564,-0.05451,-0.07522,9.78482,0.00000,0.00000,-24685744208244365821214720.00000,0.28630,-0.04103,-0.58113,-0.36274,95.13628,0.22353,0.67470,-0.00358,-0.00102,0.73808,0.00000,0.00000,0.00000,0.00000,1,0,
07.02 17:12:17:678,16565,-0.06208,-0.07289,9.82907,0.00000,0.00000,-24685744208244365821214720.00000,0.28779,-0.04452,-0.58113,-0.36300,95.13531,0.22391,0.67471,-0.00358,-0.00102,0.73807,0.00000,0.00000,0.00000,0.00000,1,0,
07.02 17:12:17:687,16566,-0.07537,-0.05869,9.80723,0.00000,0.00000,-24685744208244365821214720.00000,0.29076,-0.04254,-0.57960,-0.36256,95.13496,0.22362,0.67471,-0.00358,-0.00102,0.73807,0.00000,0.00000,0.00000,0.00000,1,0,
07.02 17:12:17:698,16567,-0.07208,-0.06608,9.81481,0.00000,0.00000,-24685744208244365821214720.00000,0.28780,-0.04698,-0.58263,-0.36159,95.13519,0.22438,0.67471,-0.00357,-0.00101,0.73807,0.00000,0.00000,0.00000,0.00000,1,0,
07.02 17:12:17:709,16568,-0.06402,-0.07362,9.81836,0.00000,0.00000,-24685744208244365821214720.00000,0.28830,-0.04496,-0.58411,-0.36168,95.13586,0.22445,0.67471,-0.00358,-0.00101,0.73808,0.00000,0.00000,0.00000,0.00000,1,0,
07.02 17:12:17:718,16569,-0.06784,-0.07332,9.80602,0.00000,0.00000,-24685744208244365821214720.00000,0.28630,-0.04602,-0.58114,-0.36331,95.13796,0.22465,0.67469,-0.00359,-0.00102,0.73809,0.00000,0.00000,0.00000,0.00000,1,0,
07.02 17:12:17:729,16570,-0.04392,-0.09152,9.79738,0.00000,0.00000,-24685744208244365821214720.00000,0.28730,-0.04401,-0.58163,-0.36226,95.13871,0.22390,0.67469,-0.00358,-0.00102,0.73809,0.00000,0.00000,0.00000,0.00000,1,0,
07.02 17:12:17:738,16571,-0.03225,-0.08163,9.80256,0.00000,0.00000,-24685744208244365821214720.00000,0.28679,-0.04604,-0.58015,-0.36280,95.13875,0.22325,0.67469,-0.00357,-0.00102,0.73809,0.00000,0.00000,0.00000,0.00000,1,0,
07.02 17:12:17:747,16572,-0.04017,-0.06981,9.80644,0.00000,0.00000,-24685744208244365821214720.00000,0.28728,-0.04405,-0.57964,-0.36233,95.13776,0.22286,0.67469,-0.00357,-0.00102,0.73809,0.00000,0.00000,0.00000,0.00000,1,0,
07.02 17:12:17:759,16573,-0.06091,-0.08925,9.80993,0.00000,0.00000,-24685744208244365821214720.00000,0.28778,-0.04357,-0.57864,-0.36328,95.13798,0.22334,0.67469,-0.00358,-0.00102,0.73809,0.00000,0.00000,0.00000,0.00000,1,0,
07.02 17:12:17:768,16574,-0.07840,-0.09190,9.80883,0.00000,0.00000,-24685744208244365821214720.00000,0.28828,-0.04404,-0.58013,-0.36344,95.13869,0.22361,0.67469,-0.00358,-0.00102,0.73809,0.00000,0.00000,0.00000,0.00000,1,0,
07.02 17:12:17:778,16575,-0.08240,-0.08123,9.80485,0.00000,0.00000,-24685744208244365821214720.00000,0.28581,-0.04749,-0.58265,-0.36211,95.13814,0.22422,0.67469,-0.00358,-0.00101,0.73809,0.00000,0.00000,0.00000,0.00000,1,0,
07.02 17:12:17:787,16576,-0.06530,-0.07426,9.81653,0.00000,0.00000,-24685744208244365821214720.00000,0.28729,-0.04453,-0.58063,-0.36143,95.13793,0.22412,0.67469,-0.00357,-0.00101,0.73809,0.00000,0.00000,0.00000,0.00000,1,0,
07.02 17:12:17:797,16577,-0.05542,-0.07892,9.80995,0.00000,0.00000,-24685744208244365821214720.00000,0.28828,-0.04503,-0.58063,-0.36130,95.13770,0.22404,0.67469,-0.00357,-0.00101,0.73809,0.00000,0.00000,0.00000,0.00000,1,0,
07.02 17:12:17:808,16578,-0.04582,-0.06139,9.78961,0.00000,0.00000,-24685744208244365821214720.00000,0.28927,-0.04554,-0.57963,-0.36140,95.13806,0.22360,0.67469,-0.00357,-0.00101,0.73809,0.00000,0.00000,0.00000,0.00000,1,0,
07.02 17:12:17:817,16579,-0.05741,-0.07150,9.79605,0.00000,0.00000,-24685744208244365821214720.00000,0.28729,-0.04603,-0.58064,-0.36325,95.13931,0.22334,0.67468,-0.00358,-0.00102,0.73810,0.00000,0.00000,0.00000,0.00000,1,0,
07.02 17:12:17:827,16580,-0.05741,-0.08550,9.80022,0.00000,0.00000,-24685744208244365821214720.00000,0.28778,-0.04606,-0.57914,-0.36266,95.13853,0.22259,0.67469,-0.00357,-0.00103,0.73809,0.00000,0.00000,0.00000,0.00000,1,0,
07.02 17:12:17:838,16581,-0.05640,-0.07233,9.81340,0.00000,0.00000,-24685744208244365821214720.00000,0.28728,-0.04757,-0.57865,-0.36256,95.13731,0.22401,0.67470,-0.00358,-0.00102,0.73809,0.00000,0.00000,0.00000,0.00000,1,0,
07.02 17:12:17:848,16582,-0.05746,-0.08364,9.79576,0.00000,0.00000,-24685744208244365821214720.00000,0.28678,-0.04358,-0.57815,-0.36356,95.13737,0.22522,0.67470,-0.00359,-0.00102,0.73809,0.00000,0.00000,0.00000,0.00000,1,0,
07.02 17:12:17:860,16583,-0.07461,-0.08027,9.79474,0.00000,0.00000,-24685744208244365821214720.00000,0.28680,-0.04552,-0.58114,-0.36370,95.13667,0.22471,0.67470,-0.00359,-0.00102,0.73808,0.00000,0.00000,0.00000,0.00000,1,0,
07.02 17:12:17:868,16584,-0.06355,-0.07633,9.81171,0.00000,0.00000,-24685744208244365821214720.00000,0.28877,-0.04655,-0.57914,-0.36309,95.13604,0.22439,0.67471,-0.00358,-0.00102,0.73808,0.00000,0.00000,0.00000,0.00000,1,0,
07.02 17:12:17:878,16585,-0.02602,-0.08095,9.80468,0.00000,0.00000,-24685744208244365821214720.00000,0.28929,-0.04598,-0.58261,-0.36287,95.13491,0.22480,0.67471,-0.00358,-0.00101,0.73807,0.00000,0.00000,0.00000,0.00000,1,0,
07.02 17:12:17:887,16586,-0.04627,-0.06726,9.79710,0.00000,0.00000,-24685744208244365821214720.00000,0.28629,-0.04455,-0.57965,-0.36226,95.13581,0.22420,0.67471,-0.00358,-0.00101,0.73808,0.00000,0.00000,0.00000,0.00000,1,0,
07.02 17:12:17:897,16587,-0.06581,-0.06630,9.81493,0.00000,0.00000,-24685744208244365821214720.00000,0.28828,-0.04505,-0.57963,-0.36205,95.13477,0.22363,0.67471,-0.00357,-0.00102,0.73807,0.00000,0.00000,0.00000,0.00000,1,0,
07.02 17:12:17:908,16588,-0.04229,-0.08457,9.79498,0.00000,0.00000,-24685744208244365821214720.00000,0.28630,-0.04504,-0.58015,-0.36142,95.13425,0.22280,0.67472,-0.00356,-0.00102,0.73807,0.00000,0.00000,0.00000,0.00000,1,0,
07.02 17:12:17:917,16589,-0.07061,-0.07100,9.79591,0.00000,0.00000,-24685744208244365821214720.00000,0.28779,-0.04552,-0.58113,-0.36310,95.13440,0.22366,0.67472,-0.00358,-0.00102,0.73807,0.00000,0.00000,0.00000,0.00000,1,0,
07.02 17:12:17:927,16590,-0.07535,-0.10172,9.79834,0.00000,0.00000,-24685744208244365821214720.00000,0.28729,-0.04403,-0.58063,-0.36261,95.13419,0.22411,0.67472,-0.00358,-0.00102,0.73807,0.00000,0.00000,0.00000,0.00000,1,0,
07.02 17:12:17:937,16591,-0.05034,-0.06721,9.81100,0.00000,0.00000,-24685744208244365821214720.00000,0.28779,-0.04703,-0.58014,-0.36310,95.13503,0.22372,0.67471,-0.00358,-0.00102,0.73807,0.00000,0.00000,0.00000,0.00000,1,0,
07.02 17:12:17:947,16592,-0.05606,-0.07566,9.80489,0.00000,0.00000,-24685744208244365821214720.00000,0.28727,-0.04610,-0.57716,-0.36177,95.13461,0.22354,0.67471,-0.00357,-0.00101,0.73807,0.00000,0.00000,0.00000,0.00000,1,0,
07.02 17:12:17:958,16593,-0.05108,-0.07492,9.81240,0.00000,0.00000,-24685744208244365821214720.00000,0.28927,-0.04556,-0.57863,-0.36207,95.13480,0.22394,0.67471,-0.00357,-0.00101,0.73807,0.00000,0.00000,0.00000,0.00000,1,0,
07.02 17:12:17:967,16594,-0.04694,-0.07708,9.81174,0.00000,0.00000,-24685744208244365821214720.00000,0.28778,-0.04455,-0.57963,-0.36162,95.13436,0.22360,0.67472,-0.00357,-0.00101,0.73807,0.00000,0.00000,0.00000,0.00000,1,0,
07.02 17:12:17:978,16595,-0.06893,-0.08762,9.80191,0.00000,0.00000,-24685744208244365821214720.00000,0.28729,-0.04555,-0.57964,-0.36136,95.13456,0.22299,0.67471,-0.00356,-0.00101,0.73807,0.00000,0.00000,0.00000,0.00000,1,0,
07.02 17:12:17:987,16596,-0.04030,-0.07650,9.80649,0.00000,0.00000,-24685744208244365821214720.00000,0.28827,-0.04508,-0.57814,-0.36023,95.13517,0.22455,0.67471,-0.00357,-0.00100,0.73807,0.00000,0.00000,0.00000,0.00000,1,0,
07.02 17:12:17:997,16597,-0.05599,-0.08597,9.80485,0.00000,0.00000,-24685744208244365821214720.00000,0.28828,-0.04655,-0.57914,-0.35877,95.13450,0.22483,0.67472,-0.00356,-0.00099,0.73807,0.00000,0.00000,0.00000,0.00000,1,0,
07.02 17:12:18:009,16598,-0.05375,-0.07729,9.80382,0.00000,0.00000,-24685744208244365821214720.00000,0.28679,-0.04656,-0.57915,-0.35898,95.13460,0.22530,0.67471,-0.00356,-0.00099,0.73807,0.00000,0.00000,0.00000,0.00000,1,0,
07.02 17:12:18:017,16599,-0.05590,-0.07427,9.79195,0.00000,0.00000,-24685744208244365821214720.00000,0.28679,-0.04555,-0.57965,-0.36032,95.13473,0.22561,0.67471,-0.00357,-0.00099,0.73807,0.00000,0.00000,0.00000,0.00000,1,0,
07.02 17:12:18:028,16600,-0.03421,-0.09044,9.78589,0.00000,0.00000,-24685744208244365821214720.00000,0.28629,-0.04505,-0.57965,-0.35920,95.13454,0.22624,0.67471,-0.00357,-0.00098,0.73807,0.00000,0.00000,0.00000,0.00000,1,0,
07.02 17:12:18:037,16601,-0.03837,-0.06540,9.80363,0.00000,0.00000,-24685744208244365821214720.00000,0.28678,-0.04858,-0.57816,-0.35388,95.12445,0.23210,0.67478,-0.00358,-0.00091,0.73801,0.00000,0.00000,0.00000,0.00000,1,0,
07.02 17:12:18:048,16602,-0.04612,-0.07261,9.78396,0.00000,0.00000,-24685744208244365821214720.00000,0.28828,-0.04506,-0.57913,-0.35342,95.12683,0.23289,0.67476,-0.00358,-0.00090,0.73802,0.00000,0.00000,0.00000,0.00000,1,0,
07.02 17:12:18:059,16603,-0.05469,-0.08218,9.81024,0.00000,0.00000,-24685744208244365821214720.00000,0.28728,-0.04358,-0.57814,-0.35330,95.12664,0.23301,0.67477,-0.00358,-0.00090,0.73802,0.00000,0.00000,0.00000,0.00000,1,0,
07.02 17:12:18:068,16604,-0.05875,-0.08202,9.79328,0.00000,0.00000,-24685744208244365821214720.00000,0.28580,-0.04505,-0.57965,-0.35297,95.12756,0.23362,0.67476,-0.00358,-0.00090,0.73803,0.00000,0.00000,0.00000,0.00000,1,0,
07.02 17:12:18:079,16605,-0.08410,-0.07674,9.81219,0.00000,0.00000,-24685744208244365821214720.00000,0.28629,-0.04455,-0.57965,-0.35261,95.12805,0.23406,0.67476,-0.00358,-0.00089,0.73803,0.00000,0.00000,0.00000,0.00000,1,0,
07.02 17:12:18:089,16606,-0.06144,-0.09031,9.80871,0.00000,0.00000,-24685744208244365821214720.00000,0.28878,-0.04702,-0.58063,-0.35183,95.12800,0.23369,0.67476,-0.00358,-0.00089,0.73803,0.00000,0.00000,0.00000,0.00000,1,0,
07.02 17:12:18:098,16607,-0.04995,-0.09028,9.81908,0.00000,0.00000,-24685744208244365821214720.00000,0.28829,-0.04601,-0.58113,-0.35233,95.12803,0.23289,0.67476,-0.00357,-0.00090,0.73803,0.00000,0.00000,0.00000,0.00000,1,0,
07.02 17:12:18:108,16608,-0.06796,-0.07631,9.78322,0.00000,0.00000,-24685744208244365821214720.00000,0.29027,-0.04450,-0.58161,-0.35282,95.12864,0.23327,0.67475,-0.00358,-0.00090,0.73803,0.00000,0.00000,0.00000,0.00000,1,0,
07.02 17:12:18:119,16609,-0.04811,-0.06513,9.79457,0.00000,0.00000,-24685744208244365821214720.00000,0.28679,-0.04405,-0.57964,-0.35411,95.12803,0.23327,0.67476,-0.00359,-0.00091,0.73803,0.00000,0.00000,0.00000,0.00000,1,0,
07.02 17:12:18:128,16610,-0.04310,-0.06540,9.80985,0.00000,0.00000,-24685744208244365821214720.00000,0.28679,-0.04603,-0.58064,-0.35595,95.13000,0.23395,0.67474,-0.00360,-0.00091,0.73804,0.00000,0.00000,0.00000,0.00000,1,0,
07.02 17:12:18:139,16611,-0.05805,-0.06542,9.82111,0.00000,0.00000,-24685744208244365821214720.00000,0.28877,-0.04454,-0.57963,-0.35610,95.12939,0.23438,0.67475,-0.00361,-0.00091,0.73804,0.00000,0.00000,0.00000,0.00000,1,0,
07.02 17:12:18:148,16612,-0.07081,-0.07957,9.79333,0.00000,0.00000,-24685744208244365821214720.00000,0.28878,-0.04401,-0.58162,-0.35572,95.12978,0.23433,0.67475,-0.00360,-0.00091,0.73804,0.00000,0.00000,0.00000,0.00000,1,0,
07.02 17:12:18:159,16613,-0.04236,-0.07198,9.82404,0.00000,0.00000,-24685744208244365821214720.00000,0.28728,-0.04708,-0.57815,-0.35429,95.12931,0.23411,0.67475,-0.00359,-0.00090,0.73804,0.00000,0.00000,0.00000,0.00000,1,0,
07.02 17:12:18:170,16614,-0.04356,-0.06611,9.80263,0.00000,0.00000,-24685744208244365821214720.00000,0.28928,-0.04752,-0.58063,-0.35440,95.12866,0.23386,0.67475,-0.00359,-0.00091,0.73803,0.00000,0.00000,0.00000,0.00000,1,0,
07.02 17:12:18:179,16615,-0.04870,-0.08043,9.80773,0.00000,0.00000,-24685744208244365821214720.00000,0.28828,-0.04505,-0.57963,-0.35465,95.12836,0.23433,0.67475,-0.00360,-0.00090,0.73803,0.00000,0.00000,0.00000,0.00000,1,0,
07.02 17:12:18:188,16616,-0.06171,-0.05800,9.80954,0.00000,0.00000,-24685744208244365821214720.00000,0.28926,-0.04609,-0.57714,-0.35405,95.12787,0.23396,0.67476,-0.00359,-0.00090,0.73803,0.00000,0.00000,0.00000,0.00000,1,0,
07.02 17:12:18:199,16617,-0.05638,-0.07146,9.79500,0.00000,0.00000,-24685744208244365821214720.00000,0.28530,-0.04405,-0.58015,-0.35294,95.12711,0.23300,0.67476,-0.00358,-0.00090,0.73803,0.00000,0.00000,0.00000,0.00000,1,0,
07.02 17:12:18:209,16618,-0.04670,-0.09771,9.80849,0.00000,0.00000,-24685744208244365821214720.00000,0.28877,-0.04405,-0.57962,-0.35185,95.12608,0.23355,0.67477,-0.00358,-0.00089,0.73802,0.00000,0.00000,0.00000,0.00000,1,0,
07.02 17:12:18:218,16619,-0.07125,-0.08693,9.80303,0.00000,0.00000,-24685744208244365821214720.00000,0.28780,-0.04499,-0.58262,-0.35447,95.12604,0.23524,0.67477,-0.00360,-0.00090,0.73802,0.00000,0.00000,0.00000,0.00000,1,0,
07.02 17:12:18:227,16620,-0.06150,-0.07980,9.81705,0.00000,0.00000,-24685744208244365821214720.00000,0.28680,-0.04602,-0.58114,-0.35472,95.12646,0.23476,0.67477,-0.00360,-0.00090,0.73802,0.00000,0.00000,0.00000,0.00000,1,0,
07.02 17:12:18:238,16621,-0.08642,-0.08813,9.81729,0.00000,0.00000,-24685744208244365821214720.00000,0.28729,-0.04603,-0.58064,-0.35423,95.12626,0.23575,0.67477,-0.00360,-0.00089,0.73802,0.00000,0.00000,0.00000,0.00000,1,0,
07.02 17:12:18:247,16622,-0.04875,-0.08321,9.80425,0.00000,0.00000,-24685744208244365821214720.00000,0.28531,-0.04354,-0.58065,-0.35418,95.12582,0.23427,0.67477,-0.00359,-0.00090,0.73802,0.00000,0.00000,0.00000,0.00000,1,0,
07.02 17:12:18:257,16623,-0.05731,-0.08957,9.78613,0.00000,0.00000,-24685744208244365821214720.00000,0.28877,-0.04705,-0.57914,-0.35464,95.12673,0.23345,0.67477,-0.00359,-0.00091,0.73802,0.00000,0.00000,0.00000,0.00000,1,0,
07.02 17:12:18:268,16624,-0.05453,-0.07139,9.80780,0.00000,0.00000,-24685744208244365821214720.00000,0.28829,-0.04552,-0.58113,-0.35412,95.12598,0.23412,0.67477,-0.00359,-0.00090,0.73802,0.00000,0.00000,0.00000,0.00000,1,0,
07.02 17:12:18:278,16625,-0.02729,-0.07216,9.80105,0.00000,0.00000,-24685744208244365821214720.00000,0.28480,-0.04209,-0.57816,-0.35483,95.12661,0.23497,0.67477,-0.00360,-0.00090,0.73802,0.00000,0.00000,0.00000,0.00000,1,0,
07.02 17:12:18:288,16626,-0.05704,-0.05602,9.81200,0.00000,0.00000,-24685744208244365821214720.00000,0.28629,-0.04505,-0.57965,-0.35410,95.12705,0.23507,0.67476,-0.00360,-0.00090,0.73803,0.00000,0.00000,0.00000,0.00000,1,0,
07.02 17:12:18:297,16627,-0.06006,-0.07467,9.79459,0.00000,0.00000,-24685744208244365821214720.00000,0.28629,-0.04254,-0.58014,-0.35359,95.12593,0.23555,0.67477,-0.00360,-0.00089,0.73802,0.00000,0.00000,0.00000,0.00000,1,0,
07.02 17:12:18:308,16628,-0.06467,-0.08364,9.80489,0.00000,0.00000,-24685744208244365821214720.00000,0.28779,-0.04752,-0.58064,-0.35411,95.12501,0.23409,0.67478,-0.00359,-0.00090,0.73801,0.00000,0.00000,0.00000,0.00000,1,0,
07.02 17:12:18:318,16629,-0.04825,-0.07921,9.79888,0.00000,0.00000,-24685744208244365821214720.00000,0.28531,-0.04802,-0.58116,-0.35513,95.12532,0.23386,0.67477,-0.00360,-0.00091,0.73801,0.00000,0.00000,0.00000,0.00000,1,0,
07.02 17:12:18:328,16630,-0.04761,-0.09571,9.80327,0.00000,0.00000,-24685744208244365821214720.00000,0.28780,-0.04399,-0.58262,-0.35415,95.12383,0.23420,0.67478,-0.00359,-0.00090,0.73801,0.00000,0.00000,0.00000,0.00000,1,0,
07.02 17:12:18:338,16631,-0.05587,-0.08580,9.80005,0.00000,0.00000,-24685744208244365821214720.00000,0.28827,-0.04806,-0.57865,-0.35326,95.12350,0.23408,0.67479,-0.00359,-0.00090,0.73800,0.00000,0.00000,0.00000,0.00000,1,0,
07.02 17:12:18:347,16632,-0.05616,-0.08643,9.80363,0.00000,0.00000,-24685744208244365821214720.00000,0.28730,-0.04550,-0.58213,-0.35284,95.12439,0.23373,0.67478,-0.00358,-0.00090,0.73801,0.00000,0.00000,0.00000,0.00000,1,0,
07.02 17:12:18:359,16633,-0.06463,-0.07743,9.81576,0.00000,0.00000,-24685744208244365821214720.00000,0.28778,-0.04457,-0.57864,-0.35228,95.12428,0.23462,0.67478,-0.00359,-0.00089,0.73801,0.00000,0.00000,0.00000,0.00000,1,0,
07.02 17:12:18:368,16634,-0.07383,-0.07120,9.81302,0.00000,0.00000,-24685744208244365821214720.00000,0.28876,-0.04462,-0.57614,-0.35184,95.12453,0.23544,0.67478,-0.00359,-0.00088,0.73801,0.00000,0.00000,0.00000,0.00000,1,0,
07.02 17:12:18:377,16635,-0.06481,-0.09694,9.80966,0.00000,0.00000,-24685744208244365821214720.00000,0.28480,-0.04456,-0.57966,-0.35186,95.12393,0.23535,0.67478,-0.00359,-0.00088,0.73801,0.00000,0.00000,0.00000,0.00000,1,0,
07.02 17:12:18:388,16636,-0.05486,-0.08740,9.79617,0.00000,0.00000,-24685744208244365821214720.00000,0.28877,-0.04555,-0.57913,-0.35109,95.12387,0.23445,0.67478,-0.00358,-0.00088,0.73801,0.00000,0.00000,0.00000,0.00000,1,0,
07.02 17:12:18:397,16637,-0.04572,-0.08236,9.81233,0.00000,0.00000,-24685744208244365821214720.00000,0.28878,-0.04502,-0.58062,-0.35063,95.12321,0.23398,0.67479,-0.00357,-0.00088,0.73800,0.00000,0.00000,0.00000,0.00000,1,0,
07.02 17:12:18:408,16638,-0.05274,-0.07438,9.80997,0.00000,0.00000,-24685744208244365821214720.00000,0.28531,-0.04503,-0.58065,-0.35167,95.12338,0.23377,0.67479,-0.00358,-0.00089,0.73800,0.00000,0.00000,0.00000,0.00000,1,0,
07.02 17:12:18:419,16639,-0.03392,-0.06556,9.80554,0.00000,0.00000,-24685744208244365821214720.00000,0.28927,-0.04554,-0.57963,-0.35193,95.12483,0.23405,0.67478,-0.00358,-0.00089,0.73801,0.00000,0.00000,0.00000,0.00000,1,0,
07.02 17:12:18:428,16640,-0.06575,-0.08442,9.79984,0.00000,0.00000,-24685744208244365821214720.00000,0.28728,-0.04307,-0.57864,-0.35205,95.12526,0.23391,0.67477,-0.00358,-0.00089,0.73801,0.00000,0.00000,0.00000,0.00000,1,0,
07.02 17:12:18:438,16641,-0.07367,-0.09148,9.79712,0.00000,0.00000,-24685744208244365821214720.00000,0.28827,-0.04457,-0.57863,-0.35209,95.12528,0.23415,0.67477,-0.00358,-0.00089,0.73801,0.00000,0.00000,0.00000,0.00000,1,0,
07.02 17:12:18:449,16642,-0.05732,-0.08388,9.81419,0.00000,0.00000,-24685744208244365821214720.00000,0.28729,-0.04403,-0.58063,-0.35226,95.12566,0.23392,0.67477,-0.00358,-0.00089,0.73802,0.00000,0.00000,0.00000,0.00000,1,0,
07.02 17:12:18:459,16643,-0.06957,-0.06998,9.79269,0.00000,0.00000,-24685744208244365821214720.00000,0.28432,-0.04602,-0.58166,-0.35329,95.12622,0.23521,0.67477,-0.00360,-0.00089,0.73802,0.00000,0.00000,0.00000,0.00000,1,0,
07.02 17:12:18:468,16644,-0.06762,-0.07625,9.81767,0.00000,0.00000,-24685744208244365821214720.00000,0.28531,-0.04602,-0.58115,-0.35315,95.12611,0.23413,0.67477,-0.00359,-0.00090,0.73802,0.00000,0.00000,0.00000,0.00000,1,0,
07.02 17:12:18:482,16645,-0.05422,-0.08355,9.80089,0.00000,0.00000,-24685744208244365821214720.00000,0.28679,-0.04254,-0.58013,-0.35351,95.12695,0.23263,0.67476,-0.00358,-0.00091,0.73802,0.00000,0.00000,0.00000,0.00000,1,0,
07.02 17:12:18:488,16646,-0.05018,-0.09965,9.81298,0.00000,0.00000,-24685744208244365821214720.00000,0.28727,-0.04359,-0.57764,-0.35349,95.12681,0.23284,0.67476,-0.00358,-0.00091,0.73802,0.00000,0.00000,0.00000,0.00000,1,0,
07.02 17:12:18:499,16647,-0.05703,-0.10250,9.78010,0.00000,0.00000,-24685744208244365821214720.00000,0.28482,-0.04649,-0.58265,-0.35355,95.12844,0.23300,0.67475,-0.00358,-0.00091,0.73803,0.00000,0.00000,0.00000,0.00000,1,0,
07.02 17:12:18:510,16648,-0.06928,-0.08034,9.81529,0.00000,0.00000,-24685744208244365821214720.00000,0.28927,-0.04455,-0.57912,-0.35293,95.12726,0.23298,0.67476,-0.00358,-0.00090,0.73803,0.00000,0.00000,0.00000,0.00000,1,0,
07.02 17:12:18:518,16649,-0.08792,-0.07796,9.80144,0.00000,0.00000,-24685744208244365821214720.00000,0.28976,-0.04355,-0.57912,-0.35424,95.12846,0.23415,0.67475,-0.00359,-0.00090,0.73803,0.00000,0.00000,0.00000,0.00000,1,0,
07.02 17:12:18:530,16650,-0.07330,-0.07440,9.81300,0.00000,0.00000,-24685744208244365821214720.00000,0.28679,-0.04355,-0.57964,-0.35503,95.12872,0.23511,0.67475,-0.00360,-0.00090,0.73804,0.00000,0.00000,0.00000,0.00000,1,0,
07.02 17:12:18:538,16651,-0.06848,-0.09681,9.81135,0.00000,0.00000,-24685744208244365821214720.00000,0.28877,-0.04506,-0.57863,-0.35479,95.12761,0.23478,0.67476,-0.00360,-0.00090,0.73803,0.00000,0.00000,0.00000,0.00000,1,0,
07.02 17:12:18:547,16652,-0.05186,-0.08154,9.80635,0.00000,0.00000,-24685744208244365821214720.00000,0.28728,-0.04656,-0.57915,-0.35445,95.12803,0.23435,0.67476,-0.00360,-0.00090,0.73803,0.00000,0.00000,0.00000,0.00000,1,0,
07.02 17:12:18:558,16653,-0.03857,-0.07662,9.80985,0.00000,0.00000,-24685744208244365821214720.00000,0.28777,-0.04508,-0.57814,-0.35359,95.12673,0.23402,0.67477,-0.00359,-0.00090,0.73802,0.00000,0.00000,0.00000,0.00000,1,0,
07.02 17:12:18:567,16654,-0.03163,-0.07122,9.80732,0.00000,0.00000,-24685744208244365821214720.00000,0.28878,-0.04601,-0.58113,-0.35514,95.12753,0.23369,0.67476,-0.00360,-0.00091,0.73803,0.00000,0.00000,0.00000,0.00000,1,0,
07.02 17:12:18:578,16655,-0.04090,-0.05070,9.78720,0.00000,0.00000,-24685744208244365821214720.00000,0.28679,-0.04605,-0.57965,-0.35377,95.12656,0.23391,0.67477,-0.00359,-0.00090,0.73802,0.00000,0.00000,0.00000,0.00000,1,0,
07.02 17:12:18:588,16656,-0.06584,-0.05176,9.80661,0.00000,0.00000,-24685744208244365821214720.00000,0.28628,-0.04509,-0.57766,-0.35402,95.12687,0.23367,0.67476,-0.00359,-0.00090,0.73802,0.00000,0.00000,0.00000,0.00000,1,0,
07.02 17:12:18:597,16657,-0.04419,-0.07208,9.80792,0.00000,0.00000,-24685744208244365821214720.00000,0.28678,-0.04657,-0.57865,-0.35333,95.12669,0.23322,0.67477,-0.00358,-0.00090,0.73802,0.00000,0.00000,0.00000,0.00000,1,0,
07.02 17:12:18:611,16658,-0.07244,-0.07646,9.81379,0.00000,0.00000,-24685744208244365821214720.00000,0.28728,-0.04306,-0.57914,-0.35506,95.12691,0.23316,0.67476,-0.00359,-0.00091,0.73802,0.00000,0.00000,0.00000,0.00000,1,0,
07.02 17:12:18:618,16659,-0.04688,-0.07275,9.82037,0.00000,0.00000,-24685744208244365821214720.00000,0.28630,-0.04654,-0.58015,-0.35546,95.12772,0.23241,0.67476,-0.00359,-0.00092,0.73803,0.00000,0.00000,0.00000,0.00000,1,0,
07.02 17:12:18:627,16660,-0.05475,-0.08099,9.77979,0.00000,0.00000,-24685744208244365821214720.00000,0.28779,-0.04400,-0.58212,-0.35591,95.12840,0.23242,0.67475,-0.00359,-0.00092,0.73803,0.00000,0.00000,0.00000,0.00000,1,0,
07.02 17:12:18:638,16661,-0.02637,-0.09129,9.82402,0.00000,0.00000,-24685744208244365821214720.00000,0.28927,-0.04554,-0.57963,-0.35522,95.12763,0.23298,0.67476,-0.00359,-0.00092,0.73803,0.00000,0.00000,0.00000,0.00000,1,0,
07.02 17:12:18:647,16662,-0.06672,-0.08191,9.77588,0.00000,0.00000,-24685744208244365821214720.00000,0.28630,-0.04451,-0.58164,-0.35462,95.12806,0.23256,0.67476,-0.00359,-0.00091,0.73803,0.00000,0.00000,0.00000,0.00000,1,0,
07.02 17:12:18:657,16663,-0.06903,-0.09251,9.82938,0.00000,0.00000,-24685744208244365821214720.00000,0.28629,-0.04257,-0.57864,-0.35460,95.12843,0.23333,0.67475,-0.00359,-0.00091,0.73803,0.00000,0.00000,0.00000,0.00000,1,0,
07.02 17:12:18:668,16664,-0.04504,-0.06433,9.77747,0.00000,0.00000,-24685744208244365821214720.00000,0.28679,-0.04354,-0.58014,-0.35513,95.12785,0.23279,0.67476,-0.00359,-0.00092,0.73803,0.00000,0.00000,0.00000,0.00000,1,0,
07.02 17:12:18:677,16665,-0.05121,-0.06392,9.82616,0.00000,0.00000,-24685744208244365821214720.00000,0.28829,-0.04201,-0.58161,-0.35633,95.12704,0.23373,0.67476,-0.00360,-0.00092,0.73803,0.00000,0.00000,0.00000,0.00000,1,0,
07.02 17:12:18:687,16666,-0.05801,-0.08575,9.78213,0.00000,0.00000,-24685744208244365821214720.00000,0.28679,-0.04506,-0.57915,-0.35752,95.12764,0.23254,0.67476,-0.00360,-0.00093,0.73803,0.00000,0.00000,0.00000,0.00000,1,0,
07.02 17:12:18:698,16667,-0.05472,-0.07306,9.83524,0.00000,0.00000,-24685744208244365821214720.00000,0.28679,-0.04355,-0.57964,-0.35822,95.12812,0.23271,0.67476,-0.00361,-0.00094,0.73803,0.00000,0.00000,0.00000,0.00000,1,0,
07.02 17:12:18:708,16668,-0.02887,-0.07842,9.77924,0.00000,0.00000,-24685744208244365821214720.00000,0.28779,-0.04703,-0.58014,-0.35832,95.12809,0.23344,0.67476,-0.00361,-0.00093,0.73803,0.00000,0.00000,0.00000,0.00000,1,0,
07.02 17:12:18:718,16669,-0.07493,-0.07823,9.83176,0.00000,0.00000,-24685744208244365821214720.00000,0.28781,-0.04493,-0.58561,-0.35749,95.12759,0.23352,0.67476,-0.00361,-0.00093,0.73803,0.00000,0.00000,0.00000,0.00000,1,0,
07.02 17:12:18:729,16670,-0.03429,-0.06210,9.77066,0.00000,0.00000,-24685744208244365821214720.00000,0.28680,-0.04601,-0.58164,-0.35761,95.12726,0.23260,0.67476,-0.00360,-0.00093,0.73803,0.00000,0.00000,0.00000,0.00000,1,0,
07.02 17:12:18:738,16671,-0.06615,-0.08129,9.81791,0.00000,0.00000,-24685744208244365821214720.00000,0.28878,-0.04253,-0.58061,-0.35844,95.12733,0.23304,0.67476,-0.00361,-0.00094,0.73803,0.00000,0.00000,0.00000,0.00000,1,0,
07.02 17:12:18:749,16672,-0.05284,-0.09147,9.78451,0.00000,0.00000,-24685744208244365821214720.00000,0.28580,-0.04354,-0.58014,-0.35873,95.12721,0.23345,0.67476,-0.00362,-0.00094,0.73803,0.00000,0.00000,0.00000,0.00000,1,0,
07.02 17:12:18:758,16673,-0.07031,-0.07948,9.82006,0.00000,0.00000,-24685744208244365821214720.00000,0.28729,-0.04455,-0.57964,-0.35988,95.12683,0.23327,0.67476,-0.00362,-0.00094,0.73802,0.00000,0.00000,0.00000,0.00000,1,0,
07.02 17:12:18:768,16674,-0.05783,-0.09303,9.78058,0.00000,0.00000,-24685744208244365821214720.00000,0.28729,-0.04655,-0.57965,-0.36087,95.12680,0.23254,0.67476,-0.00362,-0.00095,0.73802,0.00000,0.00000,0.00000,0.00000,1,0,
07.02 17:12:18:778,16675,-0.04884,-0.07838,9.81236,0.00000,0.00000,-24685744208244365821214720.00000,0.28629,-0.04758,-0.57816,-0.36108,95.12726,0.23321,0.67476,-0.00363,-0.00095,0.73803,0.00000,0.00000,0.00000,0.00000,1,0,
07.02 17:12:18:788,16676,-0.03941,-0.09387,9.80804,0.00000,0.00000,-24685744208244365821214720.00000,0.28779,-0.04451,-0.58162,-0.36090,95.12694,0.23220,0.67476,-0.00362,-0.00096,0.73802,0.00000,0.00000,0.00000,0.00000,1,0,
07.02 17:12:18:798,16677,-0.05241,-0.07929,9.80742,0.00000,0.00000,-24685744208244365821214720.00000,0.28680,-0.04600,-0.58214,-0.35987,95.12666,0.23168,0.67477,-0.00361,-0.00095,0.73802,0.00000,0.00000,0.00000,0.00000,1,0,
07.02 17:12:18:809,16678,-0.05995,-0.08178,9.81178,0.00000,0.00000,-24685744208244365821214720.00000,0.28728,-0.04358,-0.57814,-0.35959,95.12677,0.23118,0.67476,-0.00361,-0.00095,0.73802,0.00000,0.00000,0.00000,0.00000,1,0,
07.02 17:12:18:818,16679,-0.06225,-0.08362,9.80875,0.00000,0.00000,-24685744208244365821214720.00000,0.28580,-0.04352,-0.58114,-0.36133,95.12724,0.23104,0.67476,-0.00362,-0.00097,0.73803,0.00000,0.00000,0.00000,0.00000,1,0,
07.02 17:12:18:828,16680,-0.05887,-0.06940,9.81488,0.00000,0.00000,-24685744208244365821214720.00000,0.28629,-0.04357,-0.57865,-0.36208,95.12700,0.23082,0.67476,-0.00362,-0.00097,0.73802,0.00000,0.00000,0.00000,0.00000,1,0,
07.02 17:12:18:837,16681,-0.05687,-0.07434,9.79235,0.00000,0.00000,-24685744208244365821214720.00000,0.28779,-0.04603,-0.58064,-0.36271,95.12847,0.23171,0.67475,-0.00363,-0.00097,0.73803,0.00000,0.00000,0.00000,0.00000,1,0,
07.02 17:12:18:848,16682,0.06985,-0.08270,9.64232,0.00000,0.00000,-24685744208244365821214720.00000,0.28779,-0.04400,-0.58212,-0.35908,95.12926,0.23376,0.67475,-0.00362,-0.00094,0.73804,0.00000,0.00000,0.00000,0.00000,1,0,
07.02 17:12:18:859,16683,0.21335,-0.17380,9.74271,0.00000,0.00000,-24685744208244365821214720.00000,0.28579,-0.04359,-0.57766,-0.34134,95.13795,0.26213,0.67469,-0.00370,-0.00066,0.73809,0.00000,0.00000,0.00000,0.00000,1,0,
07.02 17:12:18:867,16684,-0.03511,-0.10178,10.04667,0.00000,0.00000,-24685744208244365821214720.00000,0.28730,-0.04501,-0.58163,-0.31239,95.15514,0.33479,0.67458,-0.00400,-0.00004,0.73819,0.00000,0.00000,0.00000,0.00000,1,0,
07.02 17:12:18:878,16685,-0.69691,0.14041,9.71121,0.00000,0.00000,-24685744208244365821214720.00000,0.28779,-0.04751,-0.58114,-0.30570,95.16705,0.38348,0.67450,-0.00427,0.00029,0.73826,0.00000,0.00000,0.00000,0.00000,1,0,
07.02 17:12:18:889,16686,-0.15199,-0.00598,9.74312,0.00000,0.00000,-24685744208244365821214720.00000,0.28977,-0.04452,-0.58061,-0.31080,95.15720,0.35506,0.67457,-0.00412,0.00009,0.73820,0.00000,0.00000,0.00000,0.00000,1,0,
07.02 17:12:18:898,16687,0.34831,-0.41095,10.03901,0.00000,0.00000,-24685744208244365821214720.00000,0.28730,-0.04501,-0.58163,-0.31508,95.14853,0.32444,0.67462,-0.00394,-0.00012,0.73815,0.00000,0.00000,0.00000,0.00000,1,0,
07.02 17:12:18:909,16688,0.08785,0.07694,9.67876,0.00000,0.00000,-24685744208244365821214720.00000,0.28578,-0.04611,-0.57667,-0.32245,95.15927,0.33555,0.67455,-0.00406,-0.00010,0.73822,0.00000,0.00000,0.00000,0.00000,1,0,
07.02 17:12:18:919,16689,-0.24743,0.12314,9.88553,0.00000,0.00000,-24685744208244365821214720.00000,0.28629,-0.04456,-0.57915,-0.33603,95.17015,0.35151,0.67448,-0.00424,-0.00010,0.73828,0.00000,0.00000,0.00000,0.00000,1,0,
07.02 17:12:18:928,16690,-0.16813,-0.16381,9.55480,0.00000,0.00000,-24685744208244365821214720.00000,0.28877,-0.04606,-0.57864,-0.35411,95.16867,0.34064,0.67449,-0.00428,-0.00028,0.73827,0.00000,0.00000,0.00000,0.00000,1,0,
07.02 17:12:18:938,16691,0.25507,-0.38004,9.84717,0.00000,0.00000,-24685744208244365821214720.00000,0.29026,-0.04606,-0.57862,-0.35768,95.16908,0.33445,0.67449,-0.00426,-0.00034,0.73827,0.00000,0.00000,0.00000,0.00000,1,0,
07.02 17:12:18:947,16692,-0.40883,0.04048,9.59491,0.00000,0.00000,-24685744208244365821214720.00000,0.28729,-0.04455,-0.57964,-0.35255,95.18069,0.35712,0.67441,-0.00438,-0.00017,0.73834,0.00000,0.00000,0.00000,0.00000,1,0,
07.02 17:12:18:958,16693,-0.35079,0.11364,10.02886,0.00000,0.00000,-24685744208244365821214720.00000,0.28926,-0.04407,-0.57813,-0.36599,95.17695,0.32999,0.67444,-0.00428,-0.00042,0.73832,0.00000,0.00000,0.00000,0.00000,1,0,
07.02 17:12:18:968,16694,0.44511,-1.02338,9.78769,0.00000,0.00000,-24685744208244365821214720.00000,0.28629,-0.04457,-0.57865,-0.36088,95.16077,0.28389,0.67454,-0.00395,-0.00065,0.73822,0.00000,0.00000,0.00000,0.00000,1,0,
07.02 17:12:18:978,16695,-0.15005,0.40115,9.85779,0.00000,0.00000,-24685744208244365821214720.00000,0.28629,-0.04304,-0.58014,-0.32357,95.15788,0.27745,0.67456,-0.00369,-0.00045,0.73821,0.00000,0.00000,0.00000,0.00000,1,0,
07.02 17:12:18:987,16696,-0.00086,0.19586,9.79664,0.00000,0.00000,-24685744208244365821214720.00000,0.28778,-0.04556,-0.57914,-0.31009,95.15401,0.26980,0.67459,-0.00356,-0.00041,0.73818,0.00000,0.00000,0.00000,0.00000,1,0,
07.02 17:12:18:997,16697,0.05007,-0.37643,9.76429,0.00000,0.00000,-24685744208244365821214720.00000,0.28828,-0.04403,-0.58062,-0.30545,95.15409,0.27075,0.67459,-0.00354,-0.00037,0.73818,0.00000,0.00000,0.00000,0.00000,1,0,
07.02 17:12:19:007,16698,-0.13592,-0.04700,9.71498,0.00000,0.00000,-24685744208244365821214720.00000,0.28728,-0.04608,-0.57815,-0.28427,95.15562,0.27955,0.67458,-0.00347,-0.00019,0.73819,0.00000,0.00000,0.00000,0.00000,1,0,
07.02 17:12:19:017,16699,-0.08054,0.01911,9.73415,0.00000,0.00000,-24685744208244365821214720.00000,0.28976,-0.04756,-0.57863,-0.26425,95.15273,0.28049,0.67460,-0.00336,-0.00005,0.73818,0.00000,0.00000,0.00000,0.00000,1,0,
07.02 17:12:19:027,16700,-0.03483,-0.03192,9.90441,0.00000,0.00000,-24685744208244365821214720.00000,0.28630,-0.04602,-0.58114,-0.24522,95.13997,0.28346,0.67468,-0.00327,0.00009,0.73810,0.00000,0.00000,0.00000,0.00000,1,0,
07.02 17:12:19:037,16701,0.00877,0.02331,9.81910,0.00000,0.00000,-24685744208244365821214720.00000,0.28779,-0.04653,-0.58064,-0.23130,95.13087,0.29621,0.67474,-0.00327,0.00025,0.73805,0.00000,0.00000,0.00000,0.00000,1,0,
07.02 17:12:19:048,16702,-0.08146,0.07728,9.94583,0.00000,0.00000,-24685744208244365821214720.00000,0.28679,-0.04704,-0.58015,-0.22773,95.12634,0.32249,0.67477,-0.00342,0.00043,0.73802,0.00000,0.00000,0.00000,0.00000,1,0,
07.02 17:12:19:058,16703,-0.09414,-0.03251,9.85364,0.00000,0.00000,-24685744208244365821214720.00000,0.28879,-0.04449,-0.58211,-0.22841,95.12486,0.35092,0.67478,-0.00361,0.00060,0.73801,0.00000,0.00000,0.00000,0.00000,1,0,
07.02 17:12:19:068,16704,-0.28302,-0.18641,9.67537,0.00000,0.00000,-24685744208244365821214720.00000,0.28679,-0.04606,-0.57915,-0.23215,95.12579,0.37170,0.67477,-0.00376,0.00069,0.73802,0.00000,0.00000,0.00000,0.00000,1,0,
07.02 17:12:19:079,16705,-0.13162,0.10027,9.74153,0.00000,0.00000,-24685744208244365821214720.00000,0.28679,-0.04755,-0.57965,-0.23337,95.11907,0.36684,0.67481,-0.00374,0.00066,0.73798,0.00000,0.00000,0.00000,0.00000,1,0,
07.02 17:12:19:088,16706,-0.07807,-0.04743,9.77485,0.00000,0.00000,-24685744208244365821214720.00000,0.28779,-0.04602,-0.58113,-0.23960,95.11147,0.35465,0.67486,-0.00369,0.00055,0.73793,0.00000,0.00000,0.00000,0.00000,1,0,
07.02 17:12:19:099,16707,-0.03892,-0.21804,9.71535,0.00000,0.00000,-24685744208244365821214720.00000,0.28630,-0.04551,-0.58164,-0.24107,95.10385,0.34359,0.67491,-0.00363,0.00047,0.73789,0.00000,0.00000,0.00000,0.00000,1,0,
07.02 17:12:19:110,16708,-0.02883,0.09439,9.80482,0.00000,0.00000,-24685744208244365821214720.00000,0.28728,-0.04656,-0.57915,-0.23698,95.10117,0.34023,0.67493,-0.00359,0.00048,0.73787,0.00000,0.00000,0.00000,0.00000,1,0,
07.02 17:12:19:118,16709,-0.05807,-0.12216,9.84853,0.00000,0.00000,-24685744208244365821214720.00000,0.28778,-0.04555,-0.57964,-0.23477,95.09834,0.34545,0.67495,-0.00361,0.00052,0.73786,0.00000,0.00000,0.00000,0.00000,1,0,
07.02 17:12:19:128,16710,0.01043,-0.06715,9.81207,0.00000,0.00000,-24685744208244365821214720.00000,0.28778,-0.04506,-0.57914,-0.23200,95.09811,0.35750,0.67495,-0.00367,0.00061,0.73785,0.00000,0.00000,0.00000,0.00000,1,0,
07.02 17:12:19:138,16711,0.07696,-0.10847,9.94939,0.00000,0.00000,-24685744208244365821214720.00000,0.28828,-0.04556,-0.57914,-0.23045,95.10395,0.38305,0.67491,-0.00382,0.00077,0.73789,0.00000,0.00000,0.00000,0.00000,1,0,
07.02 17:12:19:147,16712,-0.11539,-0.04045,9.81887,0.00000,0.00000,-24685744208244365821214720.00000,0.28976,-0.04505,-0.57912,-0.23315,95.11713,0.42132,0.67482,-0.00409,0.00098,0.73797,0.00000,0.00000,0.00000,0.00000,1,0,
07.02 17:12:19:158,16713,-0.16937,-0.17418,9.93322,0.00000,0.00000,-24685744208244365821214720.00000,0.29174,-0.04508,-0.57761,-0.23064,95.12660,0.44945,0.67476,-0.00425,0.00116,0.73802,0.00000,0.00000,0.00000,0.00000,1,0,
07.02 17:12:19:170,16714,-0.07415,-0.05905,9.88445,0.00000,0.00000,-24685744208244365821214720.00000,0.28877,-0.04456,-0.57863,-0.22424,95.13571,0.46577,0.67470,-0.00432,0.00130,0.73807,0.00000,0.00000,0.00000,0.00000,1,0,
07.02 17:12:19:178,16715,-0.13850,0.14311,9.74640,0.00000,0.00000,-24685744208244365821214720.00000,0.29125,-0.04354,-0.57960,-0.22655,95.14777,0.47995,0.67463,-0.00443,0.00137,0.73815,0.00000,0.00000,0.00000,0.00000,1,0,
07.02 17:12:19:188,16716,-0.08500,0.00461,9.79683,0.00000,0.00000,-24685744208244365821214720.00000,0.29125,-0.04505,-0.57911,-0.23657,95.15830,0.49195,0.67456,-0.00456,0.00137,0.73821,0.00000,0.00000,0.00000,0.00000,1,0,
07.02 17:12:19:198,16717,-0.08180,0.08478,9.75435,0.00000,0.00000,-24685744208244365821214720.00000,0.29074,-0.04510,-0.57663,-0.25531,95.17339,0.50527,0.67446,-0.00476,0.00133,0.73830,0.00000,0.00000,0.00000,0.00000,1,0,
07.02 17:12:19:208,16718,-0.16253,-0.02223,9.77394,0.00000,0.00000,-24685744208244365821214720.00000,0.29124,-0.04560,-0.57662,-0.27964,95.18319,0.51653,0.67439,-0.00497,0.00124,0.73835,0.00000,0.00000,0.00000,0.00000,1,0,
07.02 17:12:19:218,16719,-0.15430,0.10613,9.80450,0.00000,0.00000,-24685744208244365821214720.00000,0.28876,-0.04412,-0.57614,-0.30522,95.19209,0.51675,0.67434,-0.00513,0.00107,0.73841,0.00000,0.00000,0.00000,0.00000,1,0,
07.02 17:12:19:228,16720,-0.06881,-0.04667,9.84597,0.00000,0.00000,-24685744208244365821214720.00000,0.29173,-0.04611,-0.57563,-0.34180,95.19814,0.50554,0.67430,-0.00527,0.00077,0.73844,0.00000,0.00000,0.00000,0.00000,1,0,
07.02 17:12:19:238,16721,0.01981,-0.17754,9.73784,0.00000,0.00000,-24685744208244365821214720.00000,0.28976,-0.04358,-0.57762,-0.38589,95.19696,0.49017,0.67430,-0.00543,0.00040,0.73844,0.00000,0.00000,0.00000,0.00000,1,0,
07.02 17:12:19:247,16722,-0.21330,-0.33353,9.96556,0.00000,0.00000,-24685744208244365821214720.00000,0.28876,-0.04509,-0.57714,-0.43028,95.18584,0.45513,0.67437,-0.00546,-0.00009,0.73837,0.00000,0.00000,0.00000,0.00000,1,0,
07.02 17:12:19:259,16723,1.02135,0.27684,9.38788,0.00000,0.00000,-24685744208244365821214720.00000,0.29224,-0.04258,-0.57760,-0.48008,95.18447,0.41088,0.67438,-0.00547,-0.00068,0.73836,0.00000,0.00000,0.00000,0.00000,1,0,
07.02 17:12:19:268,16724,1.01287,-0.35496,10.00101,0.00000,0.00000,-24685744208244365821214720.00000,0.28876,-0.04208,-0.57812,-0.53385,95.16895,0.30026,0.67448,-0.00508,-0.00167,0.73827,0.00000,0.00000,0.00000,0.00000,1,0,
07.02 17:12:19:278,16725,0.24064,-0.07985,9.75738,0.00000,0.00000,-24685744208244365821214720.00000,0.28629,-0.04206,-0.57914,-0.58133,95.18564,0.23221,0.67438,-0.00492,-0.00238,0.73837,0.00000,0.00000,0.00000,0.00000,1,0,
07.02 17:12:19:288,16726,-0.38096,-0.18417,9.80668,0.00000,0.00000,-24685744208244365821214720.00000,0.28728,-0.04058,-0.57813,-0.61952,95.24229,0.19487,0.67401,-0.00490,-0.00285,0.73870,0.00000,0.00000,0.00000,0.00000,1,0,
07.02 17:12:19:298,16727,-0.46975,-0.40287,9.72917,0.00000,0.00000,-24685744208244365821214720.00000,0.28677,-0.04064,-0.57565,-0.64092,95.32958,0.17372,0.67345,-0.00489,-0.00311,0.73921,0.00000,0.00000,0.00000,0.00000,1,0,
07.02 17:12:19:307,16728,-0.48742,-0.47597,9.68138,0.00000,0.00000,-24685744208244365821214720.00000,0.28826,-0.03962,-0.57613,-0.64334,95.44581,0.15715,0.67270,-0.00479,-0.00323,0.73989,0.00000,0.00000,0.00000,0.00000,1,0,
07.02 17:12:19:318,16729,-0.46807,-0.31055,9.77167,0.00000,0.00000,-24685744208244365821214720.00000,0.28776,-0.04212,-0.57614,-0.63037,95.58023,0.13971,0.67183,-0.00460,-0.00326,0.74068,0.00000,0.00000,0.00000,0.00000,1,0,
07.02 17:12:19:327,16730,-0.34125,-0.01325,9.86792,0.00000,0.00000,-24685744208244365821214720.00000,0.28777,-0.04361,-0.57664,-0.61359,95.70319,0.13761,0.67104,-0.00448,-0.00316,0.74140,0.00000,0.00000,0.00000,0.00000,1,0,
07.02 17:12:19:338,16731,-0.50459,0.40355,9.84902,0.00000,0.00000,-24685744208244365821214720.00000,0.28975,-0.04409,-0.57713,-0.60757,95.77881,0.15098,0.67055,-0.00453,-0.00305,0.74185,0.00000,0.00000,0.00000,0.00000,1,0,
07.02 17:12:19:348,16732,-0.11338,0.01236,9.80470,0.00000,0.00000,-24685744208244365821214720.00000,0.28777,-0.04461,-0.57665,-0.62391,95.81509,0.16235,0.67031,-0.00470,-0.00309,0.74206,0.00000,0.00000,0.00000,0.00000,1,0,
07.02 17:12:19:358,16733,0.09937,-0.30913,9.75543,0.00000,0.00000,-24685744208244365821214720.00000,0.29023,-0.04266,-0.57364,-0.64901,95.84610,0.17425,0.67011,-0.00492,-0.00318,0.74224,0.00000,0.00000,0.00000,0.00000,1,0,
07.02 17:12:19:368,16734,0.14154,-0.38137,9.73374,0.00000,0.00000,-24685744208244365821214720.00000,0.28826,-0.04361,-0.57664,-0.65235,95.89529,0.20448,0.66979,-0.00514,-0.00303,0.74253,0.00000,0.00000,0.00000,0.00000,1,0,
07.02 17:12:19:378,16735,-0.04194,-0.12822,9.90958,0.00000,0.00000,-24685744208244365821214720.00000,0.29123,-0.04263,-0.57512,-0.63656,95.95156,0.25840,0.66942,-0.00539,-0.00262,0.74286,0.00000,0.00000,0.00000,0.00000,1,0,
07.02 17:12:19:388,16736,-0.29638,-0.09487,9.78408,0.00000,0.00000,-24685744208244365821214720.00000,0.29123,-0.04363,-0.57512,-0.61634,95.99431,0.32379,0.66914,-0.00570,-0.00211,0.74311,0.00000,0.00000,0.00000,0.00000,1,0,
07.02 17:12:19:398,16737,-0.27302,-0.31513,9.71675,0.00000,0.00000,-24685744208244365821214720.00000,0.29173,-0.04613,-0.57463,-0.59881,96.02145,0.36207,0.66897,-0.00584,-0.00177,0.74327,0.00000,0.00000,0.00000,0.00000,1,0,
07.02 17:12:19:408,16738,-0.06811,-0.05982,9.88799,0.00000,0.00000,-24685744208244365821214720.00000,0.29370,-0.04466,-0.57312,-0.57236,96.05060,0.37537,0.66878,-0.00578,-0.00152,0.74344,0.00000,0.00000,0.00000,0.00000,1,0,
07.02 17:12:19:418,16739,-0.07649,-0.05398,9.87325,0.00000,0.00000,-24685744208244365821214720.00000,0.29123,-0.04613,-0.57513,-0.55317,96.09512,0.38377,0.66849,-0.00572,-0.00135,0.74370,0.00000,0.00000,0.00000,0.00000,1,0,
07.02 17:12:19:427,16740,-0.05704,-0.24340,9.86439,0.00000,0.00000,-24685744208244365821214720.00000,0.29471,-0.04760,-0.57561,-0.54676,96.18090,0.38778,0.66793,-0.00571,-0.00129,0.74420,0.00000,0.00000,0.00000,0.00000,1,0,
07.02 17:12:19:437,16741,-0.14175,-0.33174,9.79064,0.00000,0.00000,-24685744208244365821214720.00000,0.29221,-0.04816,-0.57314,-0.54485,96.33265,0.38834,0.66695,-0.00570,-0.00128,0.74508,0.00000,0.00000,0.00000,0.00000,1,0,
07.02 17:12:19:448,16742,-0.18157,-0.21273,9.83073,0.00000,0.00000,-24685744208244365821214720.00000,0.29271,-0.04768,-0.57214,-0.54309,96.55011,0.37584,0.66553,-0.00560,-0.00135,0.74635,0.00000,0.00000,0.00000,0.00000,1,0,
07.02 17:12:19:457,16743,-0.10706,0.05003,9.88845,0.00000,0.00000,-24685744208244365821214720.00000,0.29421,-0.05113,-0.57413,-0.54635,96.81674,0.35656,0.66380,-0.00549,-0.00150,0.74789,0.00000,0.00000,0.00000,0.00000,1,0,
07.02 17:12:19:468,16744,0.05229,0.04005,9.73907,0.00000,0.00000,-24685744208244365821214720.00000,0.29272,-0.05014,-0.57414,-0.56548,97.10415,0.34354,0.66192,-0.00551,-0.00171,0.74955,0.00000,0.00000,0.00000,0.00000,1,0,
07.02 17:12:19:477,16745,0.21180,-0.07155,9.79860,0.00000,0.00000,-24685744208244365821214720.00000,0.29569,-0.05466,-0.57214,-0.58559,97.39053,0.33013,0.66004,-0.00554,-0.00194,0.75121,0.00000,0.00000,0.00000,0.00000,1,0,
07.02 17:12:19:487,16746,0.08767,-0.16438,9.85078,0.00000,0.00000,-24685744208244365821214720.00000,0.29569,-0.05417,-0.57214,-0.59810,97.67580,0.31605,0.65817,-0.00551,-0.00211,0.75285,0.00000,0.00000,0.00000,0.00000,1,0,
07.02 17:12:19:498,16747,0.16248,-0.27563,9.72801,0.00000,0.00000,-24685744208244365821214720.00000,0.29518,-0.05869,-0.57067,-0.60596,97.97856,0.30303,0.65618,-0.00547,-0.00225,0.75458,0.00000,0.00000,0.00000,0.00000,1,0,
07.02 17:12:19:509,16748,0.17571,-0.12720,9.82317,0.00000,0.00000,-24685744208244365821214720.00000,0.29767,-0.05766,-0.57214,-0.60579,98.30383,0.29025,0.65403,-0.00537,-0.00234,0.75644,0.00000,0.00000,0.00000,0.00000,1,0,
07.02 17:12:19:517,16749,0.13759,-0.03471,9.82940,0.00000,0.00000,-24685744208244365821214720.00000,0.29568,-0.06120,-0.57017,-0.60173,98.63608,0.28212,0.65184,-0.00529,-0.00238,0.75834,0.00000,0.00000,0.00000,0.00000,1,0,
07.02 17:12:19:528,16750,0.07072,-0.00671,9.88121,0.00000,0.00000,-24685744208244365821214720.00000,0.29915,-0.06119,-0.57015,-0.60344,98.97310,0.27768,0.64961,-0.00526,-0.00243,0.76025,0.00000,0.00000,0.00000,0.00000,1,0,
07.02 17:12:19:538,16751,0.12122,-0.30471,9.72207,0.00000,0.00000,-24685744208244365821214720.00000,0.29966,-0.06364,-0.57214,-0.61206,99.35519,0.26737,0.64707,-0.00524,-0.00256,0.76241,0.00000,0.00000,0.00000,0.00000,1,0,
07.02 17:12:19:548,16752,0.14426,-0.47812,9.72008,0.00000,0.00000,-24685744208244365821214720.00000,0.29966,-0.06715,-0.57166,-0.60990,99.81492,0.23750,0.64401,-0.00501,-0.00274,0.76500,0.00000,0.00000,0.00000,0.00000,1,0,
07.02 17:12:19:558,16753,0.01406,-0.08707,9.94715,0.00000,0.00000,-24685744208244365821214720.00000,0.30066,-0.07163,-0.57216,-0.60638,100.34683,0.19442,0.64045,-0.00469,-0.00298,0.76798,0.00000,0.00000,0.00000,0.00000,1,0,
07.02 17:12:19:568,16754,-0.10518,-0.01030,9.96345,0.00000,0.00000,-24685744208244365821214720.00000,0.30064,-0.07217,-0.57017,-0.62281,100.92175,0.13423,0.63659,-0.00436,-0.00345,0.77118,0.00000,0.00000,0.00000,0.00000,1,0,
07.02 17:12:19:578,16755,-0.17154,0.01377,9.85069,0.00000,0.00000,-24685744208244365821214720.00000,0.30263,-0.07767,-0.56968,-0.66470,101.50131,0.05663,0.63268,-0.00405,-0.00418,0.77439,0.00000,0.00000,0.00000,0.00000,1,0,
07.02 17:12:19:589,16756,-0.23905,-0.00960,9.92211,0.00000,0.00000,-24685744208244365821214720.00000,0.30313,-0.07967,-0.56968,-0.73546,102.07735,-0.03380,0.62878,-0.00381,-0.00518,0.77755,0.00000,0.00000,0.00000,0.00000,1,0,
07.02 17:12:19:598,16757,-0.33139,-0.50613,9.97758,0.00000,0.00000,-24685744208244365821214720.00000,0.30411,-0.08121,-0.56719,-0.84462,102.67413,-0.13741,0.62473,-0.00367,-0.00650,0.78081,0.00000,0.00000,0.00000,0.00000,1,0,
07.02 17:12:19:607,16758,-0.46815,-1.19752,9.79633,0.00000,0.00000,-24685744208244365821214720.00000,0.30560,-0.08567,-0.56869,-0.99157,103.35017,-0.24543,0.62011,-0.00369,-0.00812,0.78446,0.00000,0.00000,0.00000,0.00000,1,0,
07.02 17:12:19:618,16759,-0.38913,-2.09517,10.06397,0.00000,0.00000,-24685744208244365821214720.00000,0.30512,-0.08864,-0.57020,-1.16586,104.18407,-0.32806,0.61438,-0.00399,-0.00979,0.78894,0.00000,0.00000,0.00000,0.00000,1,0,
07.02 17:12:19:628,16760,-0.43836,-3.10567,10.09736,0.00000,0.00000,-24685744208244365821214720.00000,0.30560,-0.09370,-0.56673,-1.39680,105.28350,-0.32502,0.60678,-0.00514,-0.01141,0.79477,0.00000,0.00000,0.00000,0.00000,1,0,
07.02 17:12:19:637,16761,-0.12435,-3.09392,9.64601,0.00000,0.00000,-24685744208244365821214720.00000,0.30759,-0.09868,-0.56723,-1.71482,106.73048,-0.27130,0.59667,-0.00703,-0.01342,0.80234,0.00000,0.00000,0.00000,0.00000,1,0,
07.02 17:12:19:648,16762,0.84462,-1.89659,10.26184,0.00000,0.00000,-24685744208244365821214720.00000,0.31154,-0.10624,-0.56324,-2.11635,108.41283,-0.28657,0.58480,-0.00877,-0.01644,0.81096,0.00000,0.00000,0.00000,0.00000,1,0,
07.02 17:12:19:658,16763,0.98313,-0.97808,11.13802,0.00000,0.00000,-24685744208244365821214720.00000,0.31552,-0.11171,-0.56422,-2.63303,110.12444,-0.38157,0.57259,-0.01043,-0.02074,0.81951,0.00000,0.00000,0.00000,0.00000,1,0,
07.02 17:12:19:668,16764,0.96538,0.62653,11.10774,0.00000,0.00000,-24685744208244365821214720.00000,0.31449,-0.11782,-0.55828,-3.31069,111.70557,-0.50500,0.56119,-0.01257,-0.02638,0.82717,0.00000,0.00000,0.00000,0.00000,1,0,
07.02 17:12:19:678,16765,1.29658,0.01172,11.65081,0.00000,0.00000,-24685744208244365821214720.00000,0.31946,-0.12032,-0.55775,-4.21775,113.09789,-0.62433,0.55101,-0.01574,-0.03370,0.83367,0.00000,0.00000,0.00000,0.00000,1,0,
07.02 17:12:19:688,16766,0.95178,-2.08194,10.54126,0.00000,0.00000,-24685744208244365821214720.00000,0.31796,-0.11936,-0.55577,-5.29847,114.34145,-0.74844,0.54180,-0.01958,-0.04238,0.83921,0.00000,0.00000,0.00000,0.00000,1,0,
07.02 17:12:19:699,16767,0.71280,-2.88443,9.91064,0.00000,0.00000,-24685744208244365821214720.00000,0.31845,-0.11886,-0.55576,-6.45954,115.56611,-0.92583,0.53265,-0.02321,-0.05196,0.84442,0.00000,0.00000,0.00000,0.00000,1,0,
07.02 17:12:19:708,16768,1.23904,-4.06426,10.31678,0.00000,0.00000,-24685744208244365821214720.00000,0.32093,-0.11687,-0.55524,-7.63310,116.90144,-1.13468,0.52261,-0.02641,-0.06189,0.84991,0.00000,0.00000,0.00000,0.00000,1,0,
07.02 17:12:19:718,16769,1.83175,-4.87805,10.41284,0.00000,0.00000,-24685744208244365821214720.00000,0.32041,-0.11295,-0.55125,-8.76011,118.44015,-1.30514,0.51096,-0.02932,-0.07142,0.85613,0.00000,0.00000,0.00000,0.00000,1,0,
07.02 17:12:19:728,16770,2.44855,-5.50400,10.10674,0.00000,0.00000,-24685744208244365821214720.00000,0.32237,-0.11803,-0.54677,-9.80506,120.23283,-1.38187,0.49727,-0.03216,-0.08008,0.86329,0.00000,0.00000,0.00000,0.00000,1,0,
07.02 17:12:19:737,16771,2.39529,-4.48799,9.76347,0.00000,0.00000,-24685744208244365821214720.00000,0.32436,-0.12204,-0.54577,-10.72728,122.25734,-1.32214,0.48164,-0.03507,-0.08740,0.87129,0.00000,0.00000,0.00000,0.00000,1,0,
07.02 17:12:19:747,16772,2.23848,-3.01450,10.10625,0.00000,0.00000,-24685744208244365821214720.00000,0.32582,-0.12912,-0.54131,-11.60632,124.41309,-1.19034,0.46480,-0.03800,-0.09426,0.87956,0.00000,0.00000,0.00000,0.00000,1,0,
07.02 17:12:19:758,16773,1.79615,-2.93928,10.00976,0.00000,0.00000,-24685744208244365821214720.00000,0.33027,-0.14071,-0.53584,-12.51485,126.54507,-1.04557,0.44794,-0.04092,-0.10143,0.88735,0.00000,0.00000,0.00000,0.00000,1,0,
07.02 17:12:19:768,16774,1.17831,-3.20369,9.61420,0.00000,0.00000,-24685744208244365821214720.00000,0.33324,-0.14672,-0.53434,-13.40928,128.55368,-0.93452,0.43190,-0.04337,-0.10869,0.89430,0.00000,0.00000,0.00000,0.00000,1,0,
07.02 17:12:19:777,16775,0.99237,-3.02835,9.49325,0.00000,0.00000,-24685744208244365821214720.00000,0.33471,-0.15528,-0.53088,-14.22081,130.44110,-0.86032,0.41674,-0.04511,-0.11550,0.90053,0.00000,0.00000,0.00000,0.00000,1,0,
07.02 17:12:19:787,16776,0.68828,-2.41536,9.58734,0.00000,0.00000,-24685744208244365821214720.00000,0.33421,-0.16879,-0.52944,-14.91498,132.22104,-0.77469,0.40234,-0.04643,-0.12138,0.90622,0.00000,0.00000,0.00000,0.00000,1,0,
07.02 17:12:19:798,16777,0.47168,-2.24928,9.63943,0.00000,0.00000,-24685744208244365821214720.00000,0.33620,-0.17829,-0.52896,-15.46649,133.88930,-0.65514,0.38876,-0.04748,-0.12603,0.91144,0.00000,0.00000,0.00000,0.00000,1,0,
07.02 17:12:19:807,16778,-0.08769,-2.43032,9.49097,0.00000,0.00000,-24685744208244365821214720.00000,0.33569,-0.19133,-0.52652,-15.83391,135.46921,-0.49487,0.37583,-0.04823,-0.12909,0.91638,0.00000,0.00000,0.00000,0.00000,1,0,
07.02 17:12:19:817,16779,-0.35604,-2.92625,9.15343,0.00000,0.00000,-24685744208244365821214720.00000,0.33620,-0.20578,-0.52806,-15.96846,137.00470,-0.31063,0.36326,-0.04840,-0.13022,0.92127,0.00000,0.00000,0.00000,0.00000,1,0,
07.02 17:12:19:828,16780,-0.37588,-3.91307,8.46967,0.00000,0.00000,-24685744208244365821214720.00000,0.33720,-0.22128,-0.52711,-15.86017,138.54480,-0.10616,0.35066,-0.04797,-0.12936,0.92628,0.00000,0.00000,0.00000,0.00000,1,0,
07.02 17:12:19:838,16781,-0.01314,-4.94367,7.92156,0.00000,0.00000,-24685744208244365821214720.00000,0.33569,-0.23834,-0.52320,-15.51313,140.15427,0.10537,0.33752,-0.04685,-0.12658,0.93159,0.00000,0.00000,0.00000,0.00000,1,0,
07.02 17:12:19:847,16782,0.52291,-5.56059,7.36610,0.00000,0.00000,-24685744208244365821214720.00000,0.33520,-0.26086,-0.52130,-14.98336,141.89154,0.27046,0.32338,-0.04478,-0.12247,0.93724,0.00000,0.00000,0.00000,0.00000,1,0,
07.02 17:12:19:857,16783,0.85477,-6.12693,7.19677,0.00000,0.00000,-24685744208244365821214720.00000,0.33175,-0.28727,-0.52490,-14.34778,143.79659,0.33939,0.30792,-0.04159,-0.11779,0.94318,0.00000,0.00000,0.00000,0.00000,1,0,
07.02 17:12:19:868,16784,1.07017,-5.62986,6.93110,0.00000,0.00000,-24685744208244365821214720.00000,0.32529,-0.31233,-0.52156,-13.62347,145.84917,0.28736,0.29127,-0.03721,-0.11265,0.94926,0.00000,0.00000,0.00000,0.00000,1,0,
07.02 17:12:19:878,16785,1.25479,-5.19828,7.18655,0.00000,0.00000,-24685744208244365821214720.00000,0.31785,-0.34286,-0.51974,-12.87095,147.98247,0.09556,0.27396,-0.03171,-0.10751,0.95519,0.00000,0.00000,0.00000,0.00000,1,0,
07.02 17:12:19:887,16786,1.16912,-5.20393,7.46802,0.00000,0.00000,-24685744208244365821214720.00000,0.30744,-0.37237,-0.51943,-12.12334,150.17120,-0.20961,0.25612,-0.02542,-0.10251,0.96086,0.00000,0.00000,0.00000,0.00000,1,0,
07.02 17:12:19:898,16787,1.16730,-4.78589,7.78133,0.00000,0.00000,-24685744208244365821214720.00000,0.29503,-0.40340,-0.51814,-11.37022,152.41121,-0.59391,0.23776,-0.01861,-0.09743,0.96625,0.00000,0.00000,0.00000,0.00000,1,0,
07.02 17:12:19:907,16788,0.85847,-4.45514,8.47587,0.00000,0.00000,-24685744208244365821214720.00000,0.28263,-0.43493,-0.51686,-10.59749,154.68872,-1.01282,0.21894,-0.01165,-0.09203,0.97132,0.00000,0.00000,0.00000,0.00000,1,0,
07.02 17:12:19:919,16789,0.39931,-4.30758,8.79310,0.00000,0.00000,-24685744208244365821214720.00000,0.26576,-0.46497,-0.51611,-9.74864,157.00070,-1.41262,0.19965,-0.00490,-0.08571,0.97610,0.00000,0.00000,0.00000,0.00000,1,0,
07.02 17:12:19:928,16790,0.42735,-3.86050,9.18639,0.00000,0.00000,-24685744208244365821214720.00000,0.24989,-0.50103,-0.51388,-8.78004,159.35904,-1.76939,0.17977,0.00143,-0.07806,0.98061,0.00000,0.00000,0.00000,0.00000,1,0,
07.02 17:12:19:938,16791,1.40882,-3.98895,9.48891,0.00000,0.00000,-24685744208244365821214720.00000,0.23350,-0.53761,-0.51065,-7.74244,161.79544,-2.07820,0.15902,0.00719,-0.06952,0.98480,0.00000,0.00000,0.00000,0.00000,1,0,
07.02 17:12:19:948,16792,1.96329,-4.42978,9.19550,0.00000,0.00000,-24685744208244365821214720.00000,0.21216,-0.57369,-0.50797,-6.67974,164.28288,-2.36623,0.13766,0.01246,-0.06052,0.98855,0.00000,0.00000,0.00000,0.00000,1,0,
07.02 17:12:19:958,16793,2.10593,-3.76504,8.35198,0.00000,0.00000,-24685744208244365821214720.00000,0.19133,-0.60774,-0.50676,-5.66638,166.74901,-2.70252,0.11636,0.01769,-0.05180,0.99170,0.00000,0.00000,0.00000,0.00000,1,0,
07.02 17:12:19:968,16794,2.13823,-3.42881,7.96516,0.00000,0.00000,-24685744208244365821214720.00000,0.17049,-0.63981,-0.50505,-4.84602,169.13525,-3.14946,0.09571,0.02333,-0.04467,0.99413,0.00000,0.00000,0.00000,0.00000,1,0,
07.02 17:12:19:978,16795,2.16186,-3.02319,8.24118,0.00000,0.00000,-24685744208244365821214720.00000,0.14620,-0.67126,-0.50934,-4.28499,171.40320,-3.71859,0.07607,0.02953,-0.03969,0.99587,0.00000,0.00000,0.00000,0.00000,1,0,
07.02 17:12:19:988,16796,2.11818,-2.71168,9.11817,0.00000,0.00000,-24685744208244365821214720.00000,0.11942,-0.69231,-0.51013,-3.96964,173.55727,-4.39074,0.05744,0.03628,-0.03671,0.99701,0.00000,0.00000,0.00000,0.00000,1,0,
07.02 17:12:19:998,16797,1.58132,-2.71914,10.07848,0.00000,0.00000,-24685744208244365821214720.00000,0.09465,-0.70971,-0.51785,-3.78323,175.65143,-5.09426,0.03935,0.04313,-0.03464,0.99769,0.00000,0.00000,0.00000,0.00000,1,0,
07.02 17:12:20:007,16798,1.23772,-2.13915,10.19959,0.00000,0.00000,-24685744208244365821214720.00000,0.06839,-0.72764,-0.52410,-3.56393,177.76088,-5.72595,0.02106,0.04931,-0.03203,0.99805,0.00000,0.00000,0.00000,0.00000,1,0,
07.02 17:12:20:017,16799,1.26337,-1.86247,10.34544,0.00000,0.00000,-24685744208244365821214720.00000,0.04163,-0.74458,-0.53035,-3.24670,179.92212,-6.22197,0.00222,0.05423,-0.02832,0.99812,0.00000,0.00000,0.00000,0.00000,1,0,
07.02 17:12:20:028,16800,1.62020,-1.37717,10.36484,0.00000,0.00000,-24685744208244365821214720.00000,0.01684,-0.75657,-0.53407,-2.82443,-177.82571,-6.55087,-0.01753,0.05758,-0.02352,0.99791,0.00000,0.00000,0.00000,0.00000,1,0,
07.02 17:12:20:038,16801,2.36644,-1.09335,9.89984,0.00000,0.00000,-24685744208244365821214720.00000,-0.01342,-0.77111,-0.53586,-2.36766,-175.45782,-6.74636,-0.03834,0.05960,-0.01828,0.99732,0.00000,0.00000,0.00000,0.00000,1,0,
07.02 17:12:20:048,16802,2.76320,-1.28930,9.35715,0.00000,0.00000,-24685744208244365821214720.00000,-0.03576,-0.78469,-0.53460,-1.94721,-173.01974,-6.86007,-0.05974,0.06074,-0.01329,0.99628,0.00000,0.00000,0.00000,0.00000,1,0,
07.02 17:12:20:060,16803,3.09305,-1.03081,8.88613,0.00000,0.00000,-24685744208244365821214720.00000,-0.06405,-0.79381,-0.53286,-1.58368,-170.60216,-6.95697,-0.08093,0.06159,-0.00878,0.99478,0.00000,0.00000,0.00000,0.00000,1,0,
07.02 17:12:20:068,16804,3.29447,-0.91469,8.79437,0.00000,0.00000,-24685744208244365821214720.00000,-0.08686,-0.79931,-0.53605,-1.31223,-168.25845,-7.07140,-0.10138,0.06251,-0.00506,0.99287,0.00000,0.00000,0.00000,0.00000,1,0,
07.02 17:12:20:078,16805,3.49109,-0.86638,8.63790,0.00000,0.00000,-24685744208244365821214720.00000,-0.11317,-0.80542,-0.53429,-1.11146,-165.98425,-7.20284,-0.12115,0.06352,-0.00194,0.99060,0.00000,0.00000,0.00000,0.00000,1,0,
07.02 17:12:20:088,16806,3.65461,-0.96767,8.59869,0.00000,0.00000,-24685744208244365821214720.00000,-0.13798,-0.80748,-0.53450,-0.93123,-163.74428,-7.32106,-0.14058,0.06435,0.00100,0.98798,0.00000,0.00000,0.00000,0.00000,1,0,
07.02 17:12:20:098,16807,3.76447,-0.89583,8.76050,0.00000,0.00000,-24685744208244365821214720.00000,-0.16031,-0.80955,-0.53469,-0.75997,-161.50032,-7.44622,-0.15997,0.06515,0.00391,0.98496,0.00000,0.00000,0.00000,0.00000,1,0,
07.02 17:12:20:111,16808,3.95150,-1.47006,9.17798,0.00000,0.00000,-24685744208244365821214720.00000,-0.18563,-0.81016,-0.53290,-0.57584,-159.19652,-7.59451,-0.17982,0.06604,0.00703,0.98145,0.00000,0.00000,0.00000,0.00000,1,0,
07.02 17:12:20:118,16809,3.86473,-1.37734,8.76210,0.00000,0.00000,-24685744208244365821214720.00000,-0.20848,-0.81132,-0.52861,-0.27018,-156.76570,-7.76528,-0.20075,0.06680,0.01133,0.97730,0.00000,0.00000,0.00000,0.00000,1,0,
07.02 17:12:20:128,16810,3.71290,-0.84964,8.64979,0.00000,0.00000,-24685744208244365821214720.00000,-0.23481,-0.80750,-0.52383,0.11106,-154.20869,-8.01834,-0.22270,0.06794,0.01655,0.97238,0.00000,0.00000,0.00000,0.00000,1,0,
07.02 17:12:20:138,16811,3.55962,-0.63706,8.70247,0.00000,0.00000,-24685744208244365821214720.00000,-0.26065,-0.80819,-0.51806,0.49110,-151.56610,-8.36956,-0.24524,0.06969,0.02206,0.96670,0.00000,0.00000,0.00000,0.00000,1,0,
07.02 17:12:20:147,16812,3.96366,-0.11843,8.34473,0.00000,0.00000,-24685744208244365821214720.00000,-0.29144,-0.80540,-0.51283,0.84998,-148.89442,-8.81377,-0.26788,0.07204,0.02773,0.96036,0.00000,0.00000,0.00000,0.00000,1,0,
07.02 17:12:20:158,16813,5.32602,0.09146,9.64582,0.00000,0.00000,-24685744208244365821214720.00000,-0.32075,-0.80356,-0.50907,1.18729,-146.27199,-9.32841,-0.28993,0.07482,0.03347,0.95353,0.00000,0.00000,0.00000,0.00000,1,0,
07.02 17:12:20:167,16814,3.52341,3.58097,10.52551,0.00000,0.00000,-24685744208244365821214720.00000,-0.34910,-0.80190,-0.49685,1.66257,-143.84172,-9.75391,-0.31035,0.07632,0.04012,0.94670,0.00000,0.00000,0.00000,0.00000,1,0,
07.02 17:12:20:178,16815,3.53258,0.86472,11.18024,0.00000,0.00000,-24685744208244365821214720.00000,-0.37395,-0.79213,-0.48955,1.89348,-141.34845,-10.01367,-0.33099,0.07690,0.04441,0.93945,0.00000,0.00000,0.00000,0.00000,1,0,
07.02 17:12:20:188,16816,3.65670,2.22859,10.83956,0.00000,0.00000,-24685744208244365821214720.00000,-0.39681,-0.78630,-0.48523,2.19725,-138.94424,-10.25700,-0.35080,0.07700,0.04922,0.93198,0.00000,0.00000,0.00000,0.00000,1,0,
07.02 17:12:20:198,16817,3.37793,2.80029,10.94502,0.00000,0.00000,-24685744208244365821214720.00000,-0.41918,-0.77753,-0.47742,2.51484,-136.61719,-10.38416,-0.36985,0.07599,0.05375,0.92442,0.00000,0.00000,0.00000,0.00000,1,0,
07.02 17:12:20:207,16818,3.49897,2.85897,9.97226,0.00000,0.00000,-24685744208244365821214720.00000,-0.43857,-0.76973,-0.47107,2.84875,-134.33929,-10.38674,-0.38837,0.07380,0.05793,0.91672,0.00000,0.00000,0.00000,0.00000,1,0,
07.02 17:12:20:218,16819,5.29624,3.29870,9.58599,0.00000,0.00000,-24685744208244365821214720.00000,-0.45300,-0.76291,-0.46469,3.25795,-132.19443,-10.41536,-0.40571,0.07148,0.06264,0.90905,0.00000,0.00000,0.00000,0.00000,1,0,
07.02 17:12:20:228,16820,6.24843,5.28148,8.66743,0.00000,0.00000,-24685744208244365821214720.00000,-0.47041,-0.75559,-0.45883,3.76697,-130.21309,-10.46913,-0.42167,0.06894,0.06807,0.90156,0.00000,0.00000,0.00000,0.00000,1,0,
07.02 17:12:20:238,16821,5.85682,4.51222,8.51205,0.00000,0.00000,-24685744208244365821214720.00000,-0.48534,-0.75030,-0.45097,4.24817,-128.45123,-10.67911,-0.43575,0.06770,0.07367,0.89449,0.00000,0.00000,0.00000,0.00000,1,0,
07.02 17:12:20:248,16822,5.20598,4.02741,9.06477,0.00000,0.00000,-24685744208244365821214720.00000,-0.50026,-0.74197,-0.44509,4.58020,-126.84089,-10.89685,-0.44846,0.06705,0.07802,0.88787,0.00000,0.00000,0.00000,0.00000,1,0,
07.02 17:12:20:258,16823,5.49915,4.22109,8.93876,0.00000,0.00000,-24685744208244365821214720.00000,-0.51172,-0.73869,-0.43621,4.77027,-125.39310,-11.06375,-0.45974,0.06658,0.08099,0.88184,0.00000,0.00000,0.00000,0.00000,1,0,
07.02 17:12:20:268,16824,4.95261,3.39636,8.58191,0.00000,0.00000,-24685744208244365821214720.00000,-0.52215,-0.72975,-0.43527,4.83614,-124.06851,-11.18278,-0.46993,0.06629,0.08274,0.87632,0.00000,0.00000,0.00000,0.00000,1,0,
07.02 17:12:20:278,16825,5.16643,3.23776,8.65976,0.00000,0.00000,-24685744208244365821214720.00000,-0.53458,-0.72086,-0.43185,4.89435,-122.85580,-11.26321,-0.47920,0.06578,0.08421,0.87118,0.00000,0.00000,0.00000,0.00000,1,0,
07.02 17:12:20:288,16826,5.08088,2.58343,8.52463,0.00000,0.00000,-24685744208244365821214720.00000,-0.54205,-0.71398,-0.42741,4.99714,-121.77094,-11.33166,-0.48748,0.06506,0.08589,0.86646,0.00000,0.00000,0.00000,0.00000,1,0,
07.02 17:12:20:298,16827,4.81519,2.73481,8.59442,0.00000,0.00000,-24685744208244365821214720.00000,-0.54802,-0.70757,-0.42444,5.07898,-120.71645,-11.34213,-0.49548,0.06399,0.08715,0.86187,0.00000,0.00000,0.00000,0.00000,1,0,
07.02 17:12:20:308,16828,4.81349,2.81387,8.57330,0.00000,0.00000,-24685744208244365821214720.00000,-0.55497,-0.70458,-0.42499,5.06881,-119.69188,-11.24165,-0.50317,0.06250,0.08720,0.85750,0.00000,0.00000,0.00000,0.00000,1,0,
07.02 17:12:20:318,16829,4.47458,2.96928,8.64651,0.00000,0.00000,-24685744208244365821214720.00000,-0.55944,-0.69662,-0.42400,4.96244,-118.76971,-11.04527,-0.51002,0.06080,0.08605,0.85369,0.00000,0.00000,0.00000,0.00000,1,0,
07.02 17:12:20:328,16830,4.26891,3.27575,8.79446,0.00000,0.00000,-24685744208244365821214720.00000,-0.56141,-0.68908,-0.42697,4.78413,-117.98663,-10.74847,-0.51578,0.05880,0.08382,0.85058,0.00000,0.00000,0.00000,0.00000,1,0,
07.02 17:12:20:339,16831,3.69737,3.16124,8.48133,0.00000,0.00000,-24685744208244365821214720.00000,-0.56340,-0.68557,-0.42797,4.56564,-117.36790,-10.39433,-0.52029,0.05671,0.08093,0.84825,0.00000,0.00000,0.00000,0.00000,1,0,
07.02 17:12:20:349,16832,3.72277,2.95467,8.54237,0.00000,0.00000,-24685744208244365821214720.00000,-0.56189,-0.67998,-0.43242,4.35899,-116.95010,-10.05600,-0.52332,0.05485,0.07809,0.84678,0.00000,0.00000,0.00000,0.00000,1,0,
07.02 17:12:20:360,16833,4.24637,3.14139,9.00911,0.00000,0.00000,-24685744208244365821214720.00000,-0.56384,-0.67487,-0.43839,4.18392,-116.73363,-9.74640,-0.52488,0.05320,0.07549,0.84615,0.00000,0.00000,0.00000,0.00000,1,0,
07.02 17:12:20:369,16834,4.65456,3.61997,9.27834,0.00000,0.00000,-24685744208244365821214720.00000,-0.56284,-0.67385,-0.43937,4.04040,-116.69360,-9.42372,-0.52514,0.05144,0.07299,0.84632,0.00000,0.00000,0.00000,0.00000,1,0,
07.02 17:12:20:378,16835,4.83576,3.66968,9.58795,0.00000,0.00000,-24685744208244365821214720.00000,-0.55737,-0.67429,-0.44132,3.91070,-116.82349,-9.07306,-0.52417,0.04952,0.07038,0.84726,0.00000,0.00000,0.00000,0.00000,1,0,
07.02 17:12:20:388,16836,4.83088,4.01948,10.17940,0.00000,0.00000,-24685744208244365821214720.00000,-0.55289,-0.67070,-0.44526,3.76818,-117.15067,-8.68213,-0.52172,0.04746,0.06742,0.84912,0.00000,0.00000,0.00000,0.00000,1,0,
07.02 17:12:20:398,16837,4.76653,3.96207,10.91812,0.00000,0.00000,-24685744208244365821214720.00000,-0.54542,-0.67258,-0.45018,3.52894,-117.77353,-8.22956,-0.51705,0.04553,0.06335,0.85239,0.00000,0.00000,0.00000,0.00000,1,0,
07.02 17:12:20:409,16838,3.59556,4.54537,10.84583,0.00000,0.00000,-24685744208244365821214720.00000,-0.53744,-0.67640,-0.45760,3.19599,-118.79865,-7.61486,-0.50932,0.04297,0.05774,0.85756,0.00000,0.00000,0.00000,0.00000,1,0,
07.02 17:12:20:419,16839,3.12457,5.33587,10.58434,0.00000,0.00000,-24685744208244365821214720.00000,-0.52151,-0.68167,-0.46595,2.76011,-120.31737,-6.89987,-0.49781,0.04022,0.05079,0.86486,0.00000,0.00000,0.00000,0.00000,1,0,
07.02 17:12:20:428,16840,3.94418,5.14954,11.00035,0.00000,0.00000,-24685744208244365821214720.00000,-0.49961,-0.68785,-0.47824,2.22204,-122.33138,-6.07830,-0.48241,0.03710,0.04253,0.87413,0.00000,0.00000,0.00000,0.00000,1,0,
07.02 17:12:20:438,16841,2.98628,5.02356,10.79151,0.00000,0.00000,-24685744208244365821214720.00000,-0.47622,-0.69454,-0.49002,1.69059,-124.89884,-5.08406,-0.46261,0.03250,0.03358,0.88533,0.00000,0.00000,0.00000,0.00000,1,0,
07.02 17:12:20:448,16842,2.29406,4.44584,10.60030,0.00000,0.00000,-24685744208244365821214720.00000,-0.44439,-0.70520,-0.50125,1.17358,-127.95317,-3.99810,-0.43877,0.02685,0.02450,0.89786,0.00000,0.00000,0.00000,0.00000,1,0,
07.02 17:12:20:458,16843,1.78205,3.38853,10.93115,0.00000,0.00000,-24685744208244365821214720.00000,-0.40958,-0.71981,-0.51446,0.58137,-131.30301,-2.99561,-0.41226,0.02172,0.01540,0.91068,0.00000,0.00000,0.00000,0.00000,1,0,
07.02 17:12:20:468,16844,2.93461,1.04348,11.56429,0.00000,0.00000,-24685744208244365821214720.00000,-0.37280,-0.72997,-0.52515,-0.18087,-134.70644,-2.13988,-0.38495,0.01784,0.00573,0.92275,0.00000,0.00000,0.00000,0.00000,1,0,
07.02 17:12:20:479,16845,3.97356,-1.42411,11.42653,0.00000,0.00000,-24685744208244365821214720.00000,-0.33252,-0.73406,-0.53928,-1.13198,-138.01816,-1.32346,-0.35807,0.01432,-0.00509,0.93357,0.00000,0.00000,0.00000,0.00000,1,0,
07.02 17:12:20:488,16846,3.80779,-2.11913,10.41397,0.00000,0.00000,-24685744208244365821214720.00000,-0.29920,-0.73669,-0.55246,-2.20244,-141.20457,-0.46054,-0.33199,0.01017,-0.01679,0.94308,0.00000,0.00000,0.00000,0.00000,1,0,
07.02 17:12:20:499,16847,3.22972,-1.72712,9.59274,0.00000,0.00000,-24685744208244365821214720.00000,-0.26141,-0.73377,-0.56758,-3.35271,-144.24675,0.47048,-0.30695,0.00507,-0.02910,0.95127,0.00000,0.00000,0.00000,0.00000,1,0,
07.02 17:12:20:510,16848,1.62749,-0.04504,9.56011,0.00000,0.00000,-24685744208244365821214720.00000,-0.22412,-0.73039,-0.58070,-4.46385,-147.22446,1.48301,-0.28238,-0.00142,-0.04101,0.95842,0.00000,0.00000,0.00000,0.00000,1,0,
07.02 17:12:20:518,16849,1.06909,0.38556,9.24809,0.00000,0.00000,-24685744208244365821214720.00000,-0.18783,-0.72606,-0.59185,-5.44420,-150.29900,2.51205,-0.25695,-0.00899,-0.05151,0.96501,0.00000,0.00000,0.00000,0.00000,1,0,
07.02 17:12:20:528,16850,0.44563,0.59129,9.05102,0.00000,0.00000,-24685744208244365821214720.00000,-0.14710,-0.72078,-0.59996,-6.29534,-153.46275,3.49224,-0.23069,-0.01702,-0.06040,0.97100,0.00000,0.00000,0.00000,0.00000,1,0,
07.02 17:12:20:538,16851,-1.38907,-0.74741,9.27683,0.00000,0.00000,-24685744208244365821214720.00000,-0.10538,-0.71654,-0.60559,-7.08056,-156.67157,4.38164,-0.20395,-0.02489,-0.06814,0.97629,0.00000,0.00000,0.00000,0.00000,1,0,
07.02 17:12:20:548,16852,-3.24292,-2.24479,10.72602,0.00000,0.00000,-24685744208244365821214720.00000,-0.06764,-0.71181,-0.61174,-7.76777,-159.84775,5.11761,-0.17736,-0.03202,-0.07442,0.98081,0.00000,0.00000,0.00000,0.00000,1,0,
07.02 17:12:20:557,16853,-3.54056,-2.76802,10.92069,0.00000,0.00000,-24685744208244365821214720.00000,-0.03090,-0.70866,-0.61342,-8.25876,-162.94983,5.74882,-0.15124,-0.03880,-0.07854,0.98461,0.00000,0.00000,0.00000,0.00000,1,0,
07.02 17:12:20:567,16854,-3.09023,-2.93580,9.66440,0.00000,0.00000,-24685744208244365821214720.00000,0.00433,-0.70354,-0.61412,-8.65059,-165.90898,6.34005,-0.12626,-0.04549,-0.08150,0.98760,0.00000,0.00000,0.00000,0.00000,1,0,
07.02 17:12:20:578,16855,-1.30622,-2.93346,8.71019,0.00000,0.00000,-24685744208244365821214720.00000,0.03860,-0.69583,-0.61979,-9.13719,-168.68283,6.83073,-0.10283,-0.05126,-0.08498,0.98974,0.00000,0.00000,0.00000,0.00000,1,0,
07.02 17:12:20:588,16856,-0.17266,-2.19206,7.79836,0.00000,0.00000,-24685744208244365821214720.00000,0.06833,-0.68944,-0.61057,-9.69282,-171.47418,7.23586,-0.07924,-0.05644,-0.08876,0.99129,0.00000,0.00000,0.00000,0.00000,1,0,
07.02 17:12:20:598,16857,0.58454,-0.85399,8.27700,0.00000,0.00000,-24685744208244365821214720.00000,0.10159,-0.67679,-0.61324,-10.20099,-174.47377,7.65231,-0.05383,-0.06211,-0.09181,0.99238,0.00000,0.00000,0.00000,0.00000,1,0,
07.02 17:12:20:607,16858,0.66202,0.24321,7.15026,0.00000,0.00000,-24685744208244365821214720.00000,0.13632,-0.66673,-0.61144,-10.54881,-177.77574,8.19433,-0.02584,-0.06935,-0.09305,0.99291,0.00000,0.00000,0.00000,0.00000,1,0,
07.02 17:12:20:618,16859,1.12893,-0.09112,6.64491,0.00000,0.00000,-24685744208244365821214720.00000,0.17151,-0.65828,-0.60416,-10.78826,178.66566,8.72863,0.00441,-0.07685,-0.09285,0.99270,0.00000,0.00000,0.00000,0.00000,1,0,
07.02 17:12:20:628,16860,0.20387,-1.43953,7.33251,0.00000,0.00000,-24685744208244365821214720.00000,0.20967,-0.64585,-0.59534,-10.98331,174.93460,9.08520,0.03628,-0.08298,-0.09182,0.99165,0.00000,0.00000,0.00000,0.00000,1,0,
07.02 17:12:20:638,16861,-1.08192,-3.42461,8.75201,0.00000,0.00000,-24685744208244365821214720.00000,0.24388,-0.63139,-0.58905,-11.20017,171.15323,9.23097,0.06868,-0.08735,-0.09080,0.98965,0.00000,0.00000,0.00000,0.00000,1,0,
07.02 17:12:20:648,16862,-0.78628,-3.92126,9.36652,0.00000,0.00000,-24685744208244365821214720.00000,0.27660,-0.61342,-0.58374,-11.50182,167.52017,9.15700,0.09985,-0.08981,-0.09066,0.98679,0.00000,0.00000,0.00000,0.00000,1,0,
07.02 17:12:20:659,16863,0.14563,-3.74617,9.69127,0.00000,0.00000,-24685744208244365821214720.00000,0.30683,-0.59096,-0.57844,-11.91682,164.11807,8.88650,0.12903,-0.09061,-0.09186,0.98321,0.00000,0.00000,0.00000,0.00000,1,0,
07.02 17:12:20:668,16864,1.61847,-2.78557,9.30942,0.00000,0.00000,-24685744208244365821214720.00000,0.32616,-0.57048,-0.57523,-12.41491,160.89957,8.50314,0.15658,-0.09057,-0.09411,0.97899,0.00000,0.00000,0.00000,0.00000,1,0,
07.02 17:12:20:677,16865,1.96615,-2.52542,8.89497,0.00000,0.00000,-24685744208244365821214720.00000,0.35096,-0.54647,-0.57345,-12.93837,157.75604,8.10472,0.18338,-0.09058,-0.09673,0.97407,0.00000,0.00000,0.00000,0.00000,1,0,
07.02 17:12:20:687,16866,1.69412,-2.08956,8.30504,0.00000,0.00000,-24685744208244365821214720.00000,0.37029,-0.52397,-0.57123,-13.45500,154.63707,7.75287,0.20979,-0.09116,-0.09929,0.96841,0.00000,0.00000,0.00000,0.00000,1,0,
07.02 17:12:20:697,16867,1.29851,-1.80160,7.84913,0.00000,0.00000,-24685744208244365821214720.00000,0.38961,-0.49706,-0.56550,-13.96361,151.54016,7.42935,0.23584,-0.09215,-0.10177,0.96204,0.00000,0.00000,0.00000,0.00000,1,0,
07.02 17:12:20:708,16868,1.12337,-1.46552,7.59530,0.00000,0.00000,-24685744208244365821214720.00000,0.40695,-0.47010,-0.56228,-14.51754,148.48732,7.13005,0.26129,-0.09361,-0.10462,0.95500,0.00000,0.00000,0.00000,0.00000,1,0,
07.02 17:12:20:718,16869,0.88370,-2.56048,7.19259,0.00000,0.00000,-24685744208244365821214720.00000,0.42281,-0.44211,-0.56056,-15.17940,145.43761,6.89695,0.28634,-0.09610,-0.10818,0.94714,0.00000,0.00000,0.00000,0.00000,1,0,
07.02 17:12:20:728,16870,1.06710,-5.18219,8.26452,0.00000,0.00000,-24685744208244365821214720.00000,0.44163,-0.41169,-0.55532,-15.85776,142.34288,6.78342,0.31137,-0.09990,-0.11142,0.93843,0.00000,0.00000,0.00000,0.00000,1,0,
07.02 17:12:20:738,16871,0.02146,-4.26956,8.95424,0.00000,0.00000,-24685744208244365821214720.00000,0.45894,-0.37937,-0.54561,-16.35240,139.18065,6.86571,0.33658,-0.10506,-0.11238,0.92900,0.00000,0.00000,0.00000,0.00000,1,0,
07.02 17:12:20:748,16872,-1.25229,-4.03278,6.77540,0.00000,0.00000,-24685744208244365821214720.00000,0.48022,-0.35002,-0.53638,-16.68645,135.90863,7.17528,0.36223,-0.11174,-0.11099,0.91869,0.00000,0.00000,0.00000,0.00000,1,0,
07.02 17:12:20:760,16873,-1.90432,-6.19950,6.24592,0.00000,0.00000,-24685744208244365821214720.00000,0.49700,-0.32131,-0.52121,-16.64422,132.59904,7.59320,0.38807,-0.11804,-0.10590,0.90788,0.00000,0.00000,0.00000,0.00000,1,0,
07.02 17:12:20:769,16874,-1.18894,-3.85005,6.68406,0.00000,0.00000,-24685744208244365821214720.00000,0.51428,-0.29959,-0.50557,-16.14685,129.28262,8.01988,0.41413,-0.12257,-0.09695,0.89670,0.00000,0.00000,0.00000,0.00000,1,0,
07.02 17:12:20:779,16875,-0.59491,-0.60801,9.93304,0.00000,0.00000,-24685744208244365821214720.00000,0.53008,-0.27484,-0.49191,-15.62328,125.99081,8.30918,0.43989,-0.12550,-0.08819,0.88485,0.00000,0.00000,0.00000,0.00000,1,0,
07.02 17:12:20:788,16876,-2.40469,0.78582,11.39307,0.00000,0.00000,-24685744208244365821214720.00000,0.54441,-0.25405,-0.48077,-15.43571,122.71243,8.30805,0.46523,-0.12720,-0.08314,0.87205,0.00000,0.00000,0.00000,0.00000,1,0,
07.02 17:12:20:799,16877,-2.80982,0.17097,11.45413,0.00000,0.00000,-24685744208244365821214720.00000,0.55131,-0.22070,-0.47363,-15.72305,119.46378,7.98184,0.48988,-0.12832,-0.08310,0.85828,0.00000,0.00000,0.00000,0.00000,1,0,
07.02 17:12:20:809,16878,-1.53220,0.59070,11.15341,0.00000,0.00000,-24685744208244365821214720.00000,0.55325,-0.18734,-0.46852,-16.25591,116.44236,7.34712,0.51258,-0.12823,-0.08654,0.84459,0.00000,0.00000,0.00000,0.00000,1,0,
07.02 17:12:20:818,16879,-0.83753,1.52711,10.46962,0.00000,0.00000,-24685744208244365821214720.00000,0.55074,-0.15295,-0.46493,-16.86067,113.66030,6.54979,0.53332,-0.12738,-0.09160,0.83124,0.00000,0.00000,0.00000,0.00000,1,0,
07.02 17:12:20:828,16880,-0.05934,-0.93770,10.96906,0.00000,0.00000,-24685744208244365821214720.00000,0.54725,-0.12002,-0.46385,-17.34830,111.01414,5.65976,0.55301,-0.12553,-0.09651,0.81799,0.00000,0.00000,0.00000,0.00000,1,0,
07.02 17:12:20:838,16881,1.44061,-2.53190,10.08291,0.00000,0.00000,-24685744208244365821214720.00000,0.54177,-0.08809,-0.46278,-17.66490,108.41911,4.67784,0.57232,-0.12243,-0.10086,0.80454,0.00000,0.00000,0.00000,0.00000,1,0,
07.02 17:12:20:848,16882,3.74294,-5.30768,10.21022,0.00000,0.00000,-24685744208244365821214720.00000,0.52937,-0.05611,-0.46526,-17.86658,105.73795,3.60955,0.59212,-0.11849,-0.10496,0.79015,0.00000,0.00000,0.00000,0.00000,1,0,
07.02 17:12:20:859,16883,4.82419,-5.89999,8.79901,0.00000,0.00000,-24685744208244365821214720.00000,0.52192,-0.02564,-0.46620,-17.98187,102.83018,2.46855,0.61324,-0.11408,-0.10886,0.77400,0.00000,0.00000,0.00000,0.00000,1,0,
07.02 17:12:20:868,16884,5.60379,-5.23374,8.34394,0.00000,0.00000,-24685744208244365821214720.00000,0.50849,0.00973,-0.46370,-18.11283,99.72845,1.36781,0.63508,-0.11047,-0.11273,0.75615,0.00000,0.00000,0.00000,0.00000,1,0,
07.02 17:12:20:877,16885,5.12628,-5.71329,8.68557,0.00000,0.00000,-24685744208244365821214720.00000,0.49112,0.04468,-0.46570,-18.37220,96.52603,0.57883,0.65656,-0.10999,-0.11580,0.73717,0.00000,0.00000,0.00000,0.00000,1,0,
07.02 17:12:20:889,16886,4.43107,-6.18205,9.55462,0.00000,0.00000,-24685744208244365821214720.00000,0.48313,0.07900,-0.45967,-18.64748,93.28973,0.02946,0.67742,-0.11141,-0.11763,0.71753,0.00000,0.00000,0.00000,0.00000,1,0,
07.02 17:12:20:898,16887,3.11765,-5.92094,10.24749,0.00000,0.00000,-24685744208244365821214720.00000,0.47065,0.11369,-0.44820,-18.97007,90.01435,-0.38632,0.69774,-0.11416,-0.11889,0.69713,0.00000,0.00000,0.00000,0.00000,1,0,
07.02 17:12:20:908,16888,2.35680,-4.78929,8.64480,0.00000,0.00000,-24685744208244365821214720.00000,0.45819,0.14947,-0.44071,-19.37452,86.85690,-0.70235,0.71657,-0.11805,-0.12006,0.67688,0.00000,0.00000,0.00000,0.00000,1,0,
07.02 17:12:20:919,16889,2.76872,-4.41128,8.91774,0.00000,0.00000,-24685744208244365821214720.00000,0.44323,0.18114,-0.42827,-19.91489,83.89368,-0.81599,0.73337,-0.12392,-0.12080,0.65744,0.00000,0.00000,0.00000,0.00000,1,0,
07.02 17:12:20:928,16890,3.08250,-5.01697,8.97699,0.00000,0.00000,-24685744208244365821214720.00000,0.43272,0.21278,-0.41381,-20.62152,81.09044,-0.65313,0.74827,-0.13236,-0.12061,0.63876,0.00000,0.00000,0.00000,0.00000,1,0,
07.02 17:12:20:939,16891,2.92078,-5.80765,8.56201,0.00000,0.00000,-24685744208244365821214720.00000,0.42568,0.24240,-0.39783,-21.47076,78.44864,-0.16649,0.76129,-0.14340,-0.11890,0.62108,0.00000,0.00000,0.00000,0.00000,1,0,
07.02 17:12:20:949,16892,2.08677,-5.91393,8.19528,0.00000,0.00000,-24685744208244365821214720.00000,0.41812,0.26895,-0.37789,-22.39687,75.96206,0.60275,0.77257,-0.15625,-0.11545,0.60448,0.00000,0.00000,0.00000,0.00000,1,0,
07.02 17:12:20:957,16893,1.46837,-6.42132,8.30534,0.00000,0.00000,-24685744208244365821214720.00000,0.41503,0.29002,-0.35793,-23.28580,73.60369,1.50746,0.78258,-0.16930,-0.11057,0.58880,0.00000,0.00000,0.00000,0.00000,1,0,
07.02 17:12:20:967,16894,0.43260,-6.92778,8.78193,0.00000,0.00000,-24685744208244365821214720.00000,0.41192,0.31502,-0.33497,-24.06700,71.30453,2.39122,0.79201,-0.18127,-0.10491,0.57347,0.00000,0.00000,0.00000,0.00000,1,0,
07.02 17:12:20:978,16895,-0.40573,-6.89706,8.70958,0.00000,0.00000,-24685744208244365821214720.00000,0.40736,0.33163,-0.31753,-24.59334,68.96893,3.02444,0.80191,-0.19009,-0.09929,0.55763,0.00000,0.00000,0.00000,0.00000,1,0,
07.02 17:12:20:987,16896,-0.49052,-6.30583,8.60305,0.00000,0.00000,-24685744208244365821214720.00000,0.39784,0.35126,-0.30161,-24.79609,66.54697,3.28410,0.81285,-0.19478,-0.09435,0.54077,0.00000,0.00000,0.00000,0.00000,1,0,
07.02 17:12:20:997,16897,-0.73022,-6.16497,9.17763,0.00000,0.00000,-24685744208244365821214720.00000,0.38242,0.36811,-0.29719,-24.65022,64.02862,3.23462,0.82485,-0.19554,-0.08974,0.52281,0.00000,0.00000,0.00000,0.00000,1,0,
07.02 17:12:21:007,16898,-0.45496,-5.07710,9.33170,0.00000,0.00000,-24685744208244365821214720.00000,0.36603,0.38499,-0.29477,-24.17142,61.44099,2.94798,0.83759,-0.19278,-0.08530,0.50399,0.00000,0.00000,0.00000,0.00000,1,0,
07.02 17:12:21:018,16899,0.43675,-4.15195,9.84828,0.00000,0.00000,-24685744208244365821214720.00000,0.34422,0.40003,-0.30087,-23.42827,58.82644,2.48318,0.85060,-0.18724,-0.08120,0.48460,0.00000,0.00000,0.00000,0.00000,1,0,
07.02 17:12:21:027,16900,1.60904,-3.00064,9.66415,0.00000,0.00000,-24685744208244365821214720.00000,0.31844,0.41108,-0.30750,-22.54567,56.19895,2.01510,0.86336,-0.18054,-0.07685,0.46488,0.00000,0.00000,0.00000,0.00000,1,0,
07.02 17:12:21:037,16901,2.55063,-2.19470,9.26000,0.00000,0.00000,-24685744208244365821214720.00000,0.29265,0.42156,-0.31116,-21.62674,53.53548,1.64303,0.87568,-0.17383,-0.07191,0.44473,0.00000,0.00000,0.00000,0.00000,1,0,
07.02 17:12:21:047,16902,2.49154,-1.18257,8.93201,0.00000,0.00000,-24685744208244365821214720.00000,0.26739,0.43366,-0.32077,-20.70759,50.76677,1.37367,0.88776,-0.16742,-0.06638,0.42361,0.00000,0.00000,0.00000,0.00000,1,0,
07.02 17:12:21:059,16903,1.92304,-0.08552,9.18049,0.00000,0.00000,-24685744208244365821214720.00000,0.24461,0.44278,-0.33038,-19.82936,47.90821,1.22233,0.89943,-0.16161,-0.06030,0.40160,0.00000,0.00000,0.00000,0.00000,1,0,
07.02 17:12:21:067,16904,2.04989,0.73730,9.03361,0.00000,0.00000,-24685744208244365821214720.00000,0.22278,0.45125,-0.33252,-19.06520,45.06824,1.12603,0.91023,-0.15667,-0.05451,0.37943,0.00000,0.00000,0.00000,0.00000,1,0,
07.02 17:12:21:077,16905,1.72147,1.28443,8.30171,0.00000,0.00000,-24685744208244365821214720.00000,0.19601,0.45727,-0.33818,-18.50408,42.28921,1.03914,0.91998,-0.15318,-0.04965,0.35738,0.00000,0.00000,0.00000,0.00000,1,0,
07.02 17:12:21:088,16906,1.79273,1.51692,7.71167,0.00000,0.00000,-24685744208244365821214720.00000,0.16971,0.46723,-0.34035,-18.21381,39.50053,1.00405,0.92881,-0.15188,-0.04534,0.33495,0.00000,0.00000,0.00000,0.00000,1,0,
07.02 17:12:21:098,16907,2.11354,1.34183,7.37831,0.00000,0.00000,-24685744208244365821214720.00000,0.14440,0.47614,-0.34052,-18.17058,36.66217,1.00708,0.93687,-0.15262,-0.04142,0.31187,0.00000,0.00000,0.00000,0.00000,1,0,
07.02 17:12:21:107,16908,2.01457,0.34517,8.11699,0.00000,0.00000,-24685744208244365821214720.00000,0.11857,0.48648,-0.33671,-18.37243,33.74156,0.99992,0.94425,-0.15527,-0.03809,0.28781,0.00000,0.00000,0.00000,0.00000,1,0,
07.02 17:12:21:118,16909,2.39286,-0.24068,8.51692,0.00000,0.00000,-24685744208244365821214720.00000,0.08976,0.49629,-0.33242,-18.81078,30.77805,0.99339,0.95077,-0.15982,-0.03512,0.26316,0.00000,0.00000,0.00000,0.00000,1,0,
07.02 17:12:21:127,16910,2.14193,-1.28177,8.52132,0.00000,0.00000,-24685744208244365821214720.00000,0.06342,0.50606,-0.32563,-19.47851,27.82992,1.07070,0.95624,-0.16641,-0.03174,0.23854,0.00000,0.00000,0.00000,0.00000,1,0,
07.02 17:12:21:138,16911,1.93292,-2.41952,8.78875,0.00000,0.00000,-24685744208244365821214720.00000,0.03507,0.51975,-0.31486,-20.27893,24.86694,1.13667,0.96087,-0.17401,-0.02837,0.21364,0.00000,0.00000,0.00000,0.00000,1,0,
07.02 17:12:21:148,16912,2.19298,-3.33403,8.37620,0.00000,0.00000,-24685744208244365821214720.00000,0.00821,0.52792,-0.30310,-21.14417,21.89053,1.25503,0.96470,-0.18217,-0.02426,0.18861,0.00000,0.00000,0.00000,0.00000,1,0,
07.02 17:12:21:159,16913,2.99361,-3.92185,8.77466,0.00000,0.00000,-24685744208244365821214720.00000,-0.02064,0.53810,-0.29235,-22.00266,18.85663,1.32994,0.96793,-0.19011,-0.02002,0.16298,0.00000,0.00000,0.00000,0.00000,1,0,
07.02 17:12:21:168,16914,3.05393,-4.23645,8.33492,0.00000,0.00000,-24685744208244365821214720.00000,-0.04997,0.54332,-0.28311,-22.77552,15.68836,1.32112,0.97077,-0.19713,-0.01575,0.13604,0.00000,0.00000,0.00000,0.00000,1,0,
07.02 17:12:21:178,16915,2.90421,-5.04941,8.38223,0.00000,0.00000,-24685744208244365821214720.00000,-0.08225,0.54361,-0.27789,-23.40040,12.36002,1.17981,0.97326,-0.20269,-0.01181,0.10749,0.00000,0.00000,0.00000,0.00000,1,0,
